=~=~=~=~=~=~=~=~=~=~=~= PuTTY log 2025.04.16 15:20:19 =~=~=~=~=~=~=~=~=~=~=~=




Speed (Hz)
60.2560
60.2403
60.3457
60.4601
60.4998
60.4784
60.4096
60.3589
60.3310
60.3272
60.3470
60.3210
60.2314
60.1708
60.1750
60.1986
60.2127
60.1737
60.1239
60.1011
60.1022
60.1074
60.576
59.9273
59.8518
59.8652
59.9002
59.9298
59.9225
59.8904
59.8517
59.8309
59.8547
59.8669
59.7808
59.7081
59.7367
59.8108
59.8487
59.8313
59.8030
59.7973
59.8097
59.8477
59.8877
59.8586
59.8093
59.8105
59.8746
59.9564
59.9955
59.9788
59.9767
60.135
60.682
60.975
60.344
59.9795
60.13
60.614
60.1248
60.1768
60.1788
60.1617
60.1547
60.1997
60.2458
60.1900
60.1174
60.1406
60.2173
60.2617
60.2564
60.2111
60.1869
60.1807
60.1988
60.2219
60.1720
60.870
60.593
60.893
60.1277
60.1305
60.767
60.355
60.334
60.472
60.488
59.9633
59.8467
59.8081
59.8470
59.8867
59.9124
59.8984
59.8698
59.8398
59.8436
59.8837
59.8622
59.7695
59.7342
59.7993
59.8692
59.8906
59.8510
59.8225
59.8285
59.8536
59.8953
59.9101
59.8528
59.8141
59.8497
59.9260
60.43
60.165
59.9992
60.103
60.628
60.1149
60.1091
60.303
59.9979
60.418
60.1061
60.1752
60.2105
60.2036
60.1842
60.1980
60.2500
60.2611
60.1752
60.1264
60.1782
60.2457
60.2705
60.2402
60.1976
60.1750
60.1728
60.1973
60.2104
60.1396
60.652
60.640
60.994
60.1365
60.1184
60.709
60.453
60.524
60.698
60.544
59.9347
59.8283
59.8150
59.8565
59.8921
59.9077
59.8862
59.8509
59.8252
59.8464
59.8878
59.8285
59.7365
59.7376
59.8112
59.8668
59.8747
59.8346
59.8221
59.8386
59.8721
59.9201
59.9135
59.8641
59.8566
59.9079
59.9851
60.397
60.287
60.187
60.424
60.995
60.1384
60.939
60.230
60.232
60.800
60.1461
60.2096
60.2198
60.2038
60.1913
60.2245
60.2893
60.2672
60.1760
60.1618
60.2345
60.2944
60.3047
60.2547
60.2148
60.1968
60.2037
60.2328
60.2165
60.1282
60.700
60.891
60.1271
60.1465
60.1076
60.587
60.393
60.481
60.606
60.118
59.8878
59.8218
59.8393
59.8836
59.9151
59.9135
59.8836
59.8461
59.8313
59.8665
59.8816
59.7914
59.7267
59.7667
59.8455
59.8851
59.8589
59.8263
59.8213
59.8424
59.8830
59.9143
59.8769
59.8286
59.8433
59.9088
59.9869
60.219
60.77
60.53
60.495
60.1066
60.1266
60.531
60.70
60.368
60.966
60.1586
60.2048
60.2001
60.1803
60.1750
60.2185
60.2640
60.2011
60.1253
60.1519
60.2256
60.2652
60.2536
60.2119
60.1846
60.1727
60.1907
60.2249
60.1779
60.904
60.635
60.939
60.1263
60.1273
60.768
60.394
60.344
60.487
60.529
59.9617
59.8388
59.7955
59.8312
59.8744
59.9011
59.8822
59.8488
59.8137
59.8147
59.8567
59.8379
59.7478
59.7208
59.7872
59.8500
59.8721
59.8321
59.8147
59.8267
59.8551
59.8933
59.9051
59.8514
59.8212
59.8562
59.9260
60.6
60.25
59.9786
59.9930
60.437
60.972
60.824
60.21
59.9838
60.362
60.982
60.1621
60.1930
60.1911
60.1746
60.1952
60.2513
60.2604
60.1750
60.1291
60.1822
60.2506
60.2741
60.2372
60.1946
60.1709
60.1618
60.1879
60.1980
60.1207
60.525
60.511
60.865
60.1233
60.1034
60.527
60.252
60.318
60.496
60.312
59.9147
59.8217
59.8226
59.8642
59.9026
59.9159
59.8835
59.8379
59.8093
59.8332
59.8659
59.7981
59.7157
59.7243
59.7988
59.8461
59.8432
59.8045
59.7967
59.8149
59.8480
59.9012
59.8878
59.8360
59.8326
59.8899
59.9627
60.134
59.9971
59.9892
60.189
60.710
60.1101
60.612
59.9906
60.21
60.667
60.1293
60.1873
60.2034
60.1836
60.1704
60.2032
60.2597
60.2281
60.1401
60.1327
60.2020
60.2583
60.2685
60.2292
60.1983
60.1815
60.1919
60.2225
60.2025
60.1099
60.530
60.678
60.1132
60.1272
60.872
60.449
60.315
60.378
60.465
59.9910
59.8650
59.8037
59.8297
59.8759
59.9128
59.9123
59.8793
59.8377
59.8260
59.8621
59.8732
59.7883
59.7318
59.7748
59.8507
59.8860
59.8610
59.8304
59.8348
59.8564
59.8972
59.9271
59.8773
59.8294
59.8457
59.9107
59.9864
60.126
59.9931
59.9959
60.413
60.991
60.1138
60.411
59.9974
60.379
60.1067
60.1734
60.2144
60.2097
60.1867
60.1873
60.2388
60.2784
60.2082
60.1352
60.1637
60.2323
60.2674
60.2518
60.2024
60.1745
60.1674
60.1867
60.2161
60.1627
60.734
60.558
60.922
60.1255
60.1223
60.640
60.237
60.213
60.322
60.307
59.9380
59.8262
59.7935
59.8306
59.8706
59.8974
59.8742
59.8385
59.8054
59.8058
59.8433
59.8104
59.7136
59.6866
59.7483
59.8097
59.8264
59.7906
59.7710
59.7830
59.8127
59.8628
59.8799
59.8244
59.7927
59.8334
59.9070
59.9781
59.9759
59.9512
59.9617
60.78
60.556
60.415
59.9660
59.9411
59.9937
60.573
60.1246
60.1560
60.1502
60.1374
60.1547
60.2124
60.2212
60.1287
60.878
60.1446
60.2092
60.2316
60.1927
60.1517
60.1328
60.1351
60.1675
60.1744
60.927
60.129
60.126
60.510
60.778
60.527
60.10
59.9756
59.9810
59.9954
59.9712
59.8535
59.7660
59.7619
59.8067
59.8427
59.8585
59.8340
59.8026
59.7776
59.7924
59.8241
59.7624
59.6765
59.6803
59.7579
59.8179
59.8134
59.7708
59.7542
59.7679
59.8049
59.8530
59.8395
59.7845
59.7769
59.8368
59.9189
59.9765
59.9669
59.9507
59.9794
60.375
60.774
60.315
59.9613
59.9687
60.327
60.994
60.1534
60.1654
60.1515
60.1413
60.1743
60.2299
60.2009
60.1072
60.941
60.1633
60.2191
60.2278
60.1826
60.1426
60.1266
60.1396
60.1783
60.1607
60.743
60.240
60.474
60.878
60.1035
60.601
60.105
59.9921
59.9996
60.131
59.9614
59.8362
59.7637
59.7762
59.8170
59.8541
59.8550
59.8190
59.7809
59.7739
59.8168
59.8348
59.7450
59.6789
59.7154
59.7940
59.8345
59.8118
59.7802
59.7787
59.8014
59.8450
59.8820
59.8440
59.7912
59.8025
59.8739
59.9516
59.9864
59.9663
59.9626
60.34
60.522
60.681
59.9955
59.9455
59.9776
60.420
60.1075
60.1650
60.1711
60.1511
60.1513
60.1951
60.2416
60.1815
60.1059
60.1280
60.2032
60.2407
60.2238
60.1746
60.1434
60.1294
60.1431
60.1730
60.1238
60.356
60.75
60.424
60.810
60.899
60.362
59.9932
59.9925
60.114
60.164
59.9293
59.8078
59.7707
59.8089
59.8520
59.8796
59.8672
59.8345
59.7972
59.7942
59.8362
59.8209
59.7274
59.6908
59.7508
59.8199
59.8401
59.8000
59.7739
59.7839
59.8151
59.8644
59.8882
59.8391
59.7978
59.8314
59.9123
59.9873
59.9994
59.9833
59.9924
60.438
60.902
60.787
60.22
59.9749
60.200
60.825
60.1431
60.1764
60.1723
60.1490
60.1575
60.2129
60.2318
60.1454
60.925
60.1397
60.2181
60.2491
60.2151
60.1702
60.1466
60.1436
60.1665
60.1826
60.1158
60.357
60.299
60.614
60.913
60.752
60.271
59.9921
59.9903
60.27
59.9817
59.8668
59.7651
59.7560
59.7963
59.8312
59.8520
59.8352
59.8011
59.7729
59.7918
59.8381
59.7862
59.6942
59.6941
59.7742
59.8255
59.8311
59.7883
59.7728
59.7867
59.8217
59.8665
59.8562
59.7932
59.7741
59.8261
59.9097
59.9729
59.9649
59.9516
59.9788
60.352
60.836
60.444
59.9688
59.9651
60.248
60.889
60.1531
60.1739
60.1621
60.1552
60.1870
60.2440
60.2236
60.1291
60.1096
60.1768
60.2261
60.2343
60.1897
60.1561
60.1387
60.1413
60.1704
60.1620
60.806
60.260
60.387
60.782
60.1077
60.714
60.243
60.121
60.248
60.340
59.9842
59.8622
59.7842
59.7876
59.8277
59.8654
59.8717
59.8393
59.7994
59.7794
59.8072
59.8300
59.7486
59.6779
59.7110
59.7830
59.8229
59.8101
59.7826
59.7790
59.7919
59.8363
59.8812
59.8477
59.7963
59.8048
59.8707
59.9525
59.9911
59.9728
59.9648
60.26
60.565
60.775
60.165
59.9592
59.9738
60.430
60.1090
60.1595
60.1645
60.1453
60.1441
60.1870
60.2389
60.1885
60.1128
60.1320
60.2089
60.2569
60.2429
60.1923
60.1668
60.1579
60.1710
60.1991
60.1551
60.649
60.278
60.531
60.911
60.959
60.434
60.34
59.9993
60.171
60.235
59.9434
59.8223
59.7779
59.8167
59.8583
59.8891
59.8788
59.8524
59.8212
59.8200
59.8547
59.8455
59.7529
59.7114
59.7743
59.8441
59.8698
59.8319
59.8052
59.8117
59.8357
59.8789
59.9016
59.8519
59.8140
59.8473
59.9215
59.9943
60.131
59.9946
60.39
60.523
60.1092
60.1076
60.301
60.50
60.548
60.1197
60.1777
60.2136
60.2084
60.1909
60.2019
60.2585
60.2734
60.1855
60.1320
60.1826
60.2562
60.2838
60.2531
60.2095
60.1850
60.1867
60.2168
60.2345
60.1697
60.958
60.862
60.1223
60.1564
60.1409
60.857
60.514
60.515
60.702
60.629
59.9510
59.8495
59.8315
59.8662
59.9066
59.9234
59.8918
59.8467
59.8235
59.8467
59.8899
59.8402
59.7471
59.7456
59.8218
59.8776
59.8872
59.8514
59.8384
59.8529
59.8899
59.9381
59.9225
59.8670
59.8543
59.9018
59.9771
60.401
60.261
60.96
60.338
60.857
60.1321
60.922
60.205
60.241
60.852
60.1431
60.2039
60.2248
60.2109
60.2019
60.2326
60.2926
60.2676
60.1780
60.1635
60.2323
60.2923
60.3013
60.2497
60.2063
60.1855
60.1926
60.2223
60.2042
60.1129
60.516
60.631
60.1051
60.1304
60.936
60.508
60.310
60.450
60.582
60.53
59.8853
59.8157
59.8309
59.8774
59.9097
59.9019
59.8664
59.8278
59.8192
59.8525
59.8677
59.7847
59.7172
59.7560
59.8315
59.8674
59.8462
59.8074
59.8015
59.8193
59.8560
59.8923
59.8573
59.8061
59.8223
59.8942
59.9757
60.111
59.9965
59.9979
60.394
60.950
60.1151
60.418
59.9801
60.36
60.644
60.1230
60.1684
60.1705
60.1503
60.1499
60.2009
60.2538
60.1937
60.1205
60.1466
60.2244
60.2604
60.2477
60.2039
60.1759
60.1695
60.1901
60.2186
60.1715
60.787
60.452
60.778
60.1204
60.1295
60.789
60.374
60.315
60.496
60.505
59.9576
59.8402
59.8054
59.8411
59.8795
59.9016
59.8833
59.8513
59.8179
59.8198
59.8644
59.8547
59.7621
59.7317
59.7980
59.8693
59.8912
59.8516
59.8248
59.8292
59.8527
59.8961
59.9093
59.8521
59.8152
59.8482
59.9262
60.38
60.192
60.31
60.206
60.753
60.1271
60.1163
60.333
60.86
60.559
60.1205
60.1832
60.2133
60.2098
60.1910
60.2086
60.2666
60.2788
60.1921
60.1441
60.1961
60.2620
60.2785
60.2436
60.1968
60.1737
60.1693
60.1889
60.1968
60.1240
60.524
60.557
60.1014
60.1337
60.1093
60.646
60.399
60.501
60.666
60.506
59.9338
59.8266
59.8155
59.8566
59.9009
59.9221
59.8892
59.8453
59.8170
59.8359
59.8762
59.8243
59.7388
59.7422
59.8185
59.8688
59.8652
59.8285
59.8190
59.8322
59.8651
59.9097
59.8992
59.8474
59.8412
59.8983
59.9794
60.345
60.263
60.156
60.452
60.1028
60.1426
60.981
60.234
60.204
60.751
60.1339
60.1969
60.2100
60.1994
60.1931
60.2301
60.2927
60.2689
60.1835
60.1775
60.2509
60.3092
60.3143
60.2709
60.2351
60.2107
60.2235
60.2601
60.2419
60.1459
60.902
60.1085
60.1497
60.1697
60.1263
60.829
60.703
60.803
60.912
60.300
59.9061
59.8370
59.8603
59.9034
59.9404
59.9398
59.9072
59.8669
59.8570
59.8979
59.9127
59.8297
59.7732
59.8151
59.8883
59.9195
59.8890
59.8509
59.8474
59.8687
59.9097
59.9444
59.8982
59.8490
59.8669
59.9406
60.228
60.499
60.343
60.398
60.813
60.1319
60.1479
60.727
60.208
60.549
60.1181
60.1829
60.2319
60.2316
60.2087
60.2049
60.2588
60.2984
60.2280
60.1619
60.1928
60.2654
60.2999
60.2802
60.2367
60.2095
60.2046
60.2285
60.2491
60.1886
60.1017
60.793
60.1181
60.1638
60.1582
60.1043
60.702
60.714
60.894
60.812
59.9801
59.8583
59.8292
59.8660
59.9053
59.9358
59.9128
59.8720
59.8456
59.8541
59.8977
59.8660
59.7772
59.7611
59.8302
59.8969
59.9103
59.8668
59.8441
59.8547
59.8867
59.9382
59.9501
59.8895
59.8611
59.9057
59.9826
60.518
60.503
60.294
60.468
60.991
60.1426
60.1186
60.422
60.270
60.759
60.1362
60.2034
60.2340
60.2300
60.2183
60.2374
60.2936
60.2929
60.2027
60.1713
60.2324
60.2917
60.3080
60.2683
60.2213
60.2014
60.2035
60.2291
60.2257
60.1410
60.754
60.817
60.1186
60.1433
60.1129
60.667
60.431
60.495
60.687
60.399
59.9155
59.8269
59.8387
59.8818
59.9143
59.9243
59.8954
59.8525
59.8259
59.8546
59.8858
59.8115
59.7279
59.7423
59.8175
59.8634
59.8502
59.8117
59.8043
59.8202
59.8539
59.8993
59.8807
59.8262
59.8207
59.8831
59.9714
60.201
59.9967
59.9862
60.222
60.748
60.1024
60.434
59.9825
59.9959
60.534
60.1178
60.1730
60.1833
60.1590
60.1429
60.1808
60.2407
60.2066
60.1178
60.1200
60.1935
60.2442
60.2444
60.2025
60.1660
60.1553
60.1712
60.2072
60.1769
60.804
60.324
60.559
60.933
60.1035
60.614
60.218
60.103
60.181
60.266
59.9578
59.8348
59.7786
59.8049
59.8446
59.8776
59.8726
59.8410
59.8109
59.8039
59.8437
59.8490
59.7599
59.7054
59.7498
59.8288
59.8624
59.8358
59.8015
59.7988
59.8206
59.8630
59.8920
59.8410
59.7957
59.8210
59.8908
59.9773
59.9998
59.9780
59.9781
60.212
60.756
60.868
60.127
59.9740
60.120
60.744
60.1394
60.1821
60.1805
60.1626
60.1665
60.2168
60.2554
60.1773
60.1102
60.1461
60.2187
60.2442
60.2208
60.1730
60.1516
60.1431
60.1651
60.1926
60.1324
60.434
60.231
60.572
60.868
60.862
60.412
60.93
60.93
60.262
60.207
59.9149
59.8027
59.7760
59.8180
59.8581
59.8800
59.8581
59.8259
59.7976
59.8059
59.8439
59.8109
59.7131
59.6875
59.7534
59.8164
59.8335
59.7969
59.7819
59.7946
59.8283
59.8778
59.8856
59.8311
59.8081
59.8495
59.9228
59.9889
59.9923
59.9758
59.9933
60.417
60.866
60.663
59.9861
59.9717
60.235
60.883
60.1512
60.1781
60.1680
60.1433
60.1615
60.2277
60.2351
60.1502
60.1155
60.1740
60.2331
60.2536
60.2170
60.1799
60.1559
60.1567
60.1853
60.1876
60.1070
60.423
60.436
60.758
60.1040
60.736
60.186
59.9903
59.9939
60.122
59.9883
59.8720
59.7815
59.7826
59.8277
59.8637
59.8736
59.8499
59.8215
59.8025
59.8233
59.8486
59.7726
59.6925
59.7114
59.7904
59.8382
59.8296
59.7879
59.7767
59.7907
59.8295
59.8749
59.8566
59.8024
59.7932
59.8523
59.9352
59.9902
59.9788
59.9659
59.9983
60.533
60.934
60.395
59.9751
59.9862
60.522
60.1191
60.1789
60.1946
60.1730
60.1622
60.1998
60.2525
60.2131
60.1236
60.1185
60.1934
60.2445
60.2440
60.1955
60.1644
60.1541
60.1651
60.1947
60.1682
60.852
60.449
60.714
60.1144
60.1268
60.825
60.372
60.235
60.387
60.494
59.9811
59.8476
59.7848
59.8130
59.8563
59.8897
59.8784
59.8410
59.8019
59.7924
59.8329
59.8440
59.7583
59.7010
59.7495
59.8255
59.8577
59.8321
59.7990
59.7934
59.8140
59.8582
59.8908
59.8500
59.8036
59.8226
59.8903
59.9675
59.9936
59.9732
59.9755
60.173
60.696
60.795
60.52
59.9596
59.9942
60.571
60.1253
60.1770
60.1770
60.1596
60.1701
60.2266
60.2682
60.2009
60.1270
60.1562
60.2278
60.2622
60.2441
60.1974
60.1676
60.1575
60.1762
60.2023
60.1421
60.530
60.276
60.621
60.990
60.1011
60.536
60.203
60.132
60.276
60.273
59.9341
59.8242
59.8014
59.8399
59.8733
59.9047
59.8867
59.8502
59.8179
59.8302
59.8753
59.8373
59.7421
59.7232
59.7908
59.8539
59.8637
59.8256
59.8060
59.8160
59.8451
59.8929
59.9056
59.8525
59.8302
59.8731
59.9456
60.143
60.160
60.68
60.300
60.819
60.1259
60.1031
60.249
60.114
60.662
60.1310
60.1886
60.2092
60.2020
60.1883
60.2053
60.2624
60.2653
60.1804
60.1422
60.2016
60.2672
60.2855
60.2455
60.2126
60.1985
60.1983
60.2201
60.2186
60.1423
60.742
60.801
60.1230
60.1528
60.1285
60.784
60.488
60.539
60.668
60.317
59.9057
59.8201
59.8239
59.8635
59.9007
59.9118
59.8900
59.8523
59.8305
59.8590
59.8939
59.8265
59.7499
59.7698
59.8480
59.8919
59.8820
59.8414
59.8353
59.8497
59.8787
59.9192
59.8936
59.8325
59.8328
59.8954
59.9723
60.220
60.93
59.9966
60.314
60.903
60.1252
60.723
60.24
60.135
60.807
60.1447
60.2021
60.2104
60.1931
60.1824
60.2186
60.2776
60.2409
60.1547
60.1520
60.2230
60.2724
60.2721
60.2216
60.1818
60.1607
60.1708
60.2026
60.1736
60.867
60.412
60.676
60.1054
60.1184
60.741
60.380
60.291
60.419
60.505
59.9882
59.8636
59.8050
59.8298
59.8681
59.8968
59.8888
59.8555
59.8197
59.8144
59.8516
59.8545
59.7620
59.7085
59.7568
59.8294
59.8616
59.8332
59.8052
59.8089
59.8331
59.8727
59.9002
59.8518
59.8123
59.8381
59.9124
59.9956
60.212
60.44
60.67
60.466
60.994
60.1047
60.272
59.9874
60.254
60.892
60.1536
60.1952
60.1939
60.1806
60.1872
60.2386
60.2758
60.2008
60.1352
60.1720
60.2466
60.2850
60.2658
60.2225
60.2013
60.1977
60.2147
60.2394
60.1778
60.900
60.707
60.1032
60.1340
60.1210
60.714
60.382
60.436
60.598
60.493
59.9454
59.8388
59.8195
59.8597
59.9021
59.9206
59.8942
59.8621
59.8302
59.8435
59.8855
59.8439
59.7511
59.7383
59.8097
59.8717
59.8824
59.8418
59.8247
59.8328
59.8619
59.9022
59.9041
59.8449
59.8212
59.8631
59.9374
60.94
60.99
59.9968
60.204
60.747
60.1188
60.864
60.122
60.80
60.618
60.1253
60.1911
60.2107
60.1966
60.1785
60.2048
60.2633
60.2594
60.1657
60.1348
60.1980
60.2539
60.2679
60.2327
60.1982
60.1761
60.1774
60.2032
60.1957
60.1203
60.597
60.645
60.1023
60.1294
60.974
60.521
60.332
60.402
60.575
60.209
59.8876
59.7995
59.8076
59.8525
59.8850
59.8868
59.8560
59.8181
59.7939
59.8227
59.8505
59.7784
59.7037
59.7293
59.8087
59.8571
59.8494
59.8143
59.8052
59.8197
59.8542
59.8967
59.8724
59.8257
59.8293
59.8917
59.9692
60.93
59.9937
59.9868
60.223
60.758
60.1056
60.419
59.9757
59.9936
60.568
60.1206
60.1792
60.1902
60.1715
60.1614
60.2056
60.2616
60.2186
60.1344
60.1403
60.2142
60.2672
60.2674
60.2101
60.1726
60.1564
60.1679
60.1955
60.1574
60.661
60.309
60.561
60.932
60.1091
60.628
60.177
60.89
60.229
60.266
59.9537
59.8286
59.7796
59.8087
59.8475
59.8779
59.8623
59.8252
59.7917
59.7886
59.8291
59.8328
59.7381
59.6894
59.7445
59.8144
59.8366
59.8032
59.7782
59.7781
59.7934
59.8310
59.8603
59.8170
59.7787
59.8076
59.8827
59.9657
59.9886
59.9731
59.9780
60.223
60.754
60.839
60.133
59.9705
60.40
60.688
60.1299
60.1694
60.1591
60.1360
60.1408
60.1972
60.2335
60.1564
60.929
60.1333
60.2090
60.2450
60.2264
60.1776
60.1451
60.1385
60.1648
60.1922
60.1311
60.447
60.209
60.567
60.959
60.898
60.418
60.84
60.65
60.173
60.88
59.9090
59.7982
59.7757
59.8168
59.8552
59.8694
59.8417
59.8036
59.7706
59.7838
59.8284
59.7991
59.7086
59.6911
59.7602
59.8251
59.8362
59.7948
59.7708
59.7775
59.8038
59.8497
59.8531
59.7943
59.7668
59.8080
59.8851
59.9535
59.9537
59.9388
59.9570
60.95
60.564
60.345
59.9561
59.9384
59.9890
60.531
60.1194
60.1521
60.1493
60.1328
60.1557
60.2178
60.2226
60.1294
60.933
60.1541
60.2179
60.2373
60.1882
60.1430
60.1195
60.1184
60.1451
60.1493
60.649
59.9928
60.27
60.511
60.815
60.601
60.118
59.9910
59.9948
60.79
59.9788
59.8575
59.7634
59.7625
59.8067
59.8469
59.8604
59.8321
59.7913
59.7698
59.7946
59.8252
59.7574
59.6757
59.6948
59.7682
59.8156
59.8095
59.7736
59.7655
59.7791
59.8146
59.8673
59.8496
59.7935
59.7928
59.8539
59.9402
59.9970
59.9857
59.9717
60.54
60.621
60.977
60.376
59.9681
59.9764
60.429
60.1084
60.1667
60.1820
60.1713
60.1592
60.1928
60.2479
60.2204
60.1407
60.1394
60.2131
60.2684
60.2690
60.2233
60.1920
60.1753
60.1904
60.2257
60.1978
60.1049
60.566
60.804
60.1228
60.1424
60.979
60.544
60.429
60.512
60.580
59.9918
59.8667
59.8080
59.8285
59.8690
59.9037
59.9023
59.8755
59.8408
59.8329
59.8730
59.8819
59.7961
59.7425
59.7927
59.8637
59.8942
59.8568
59.8239
59.8277
59.8453
59.8822
59.9125
59.8690
59.8280
59.8453
59.9189
60.58
60.323
60.159
60.203
60.624
60.1178
60.1287
60.479
60.2
60.392
60.1123
60.1795
60.2225
60.2171
60.1955
60.2024
60.2537
60.2878
60.2128
60.1432
60.1774
60.2496
60.2819
60.2579
60.2081
60.1751
60.1663
60.1913
60.2133
60.1572
60.739
60.546
60.908
60.1329
60.1283
60.757
60.397
60.364
60.447
60.351
59.9340
59.8221
59.7946
59.8294
59.8691
59.8940
59.8672
59.8262
59.7924
59.8018
59.8396
59.8069
59.7131
59.6932
59.7676
59.8332
59.8478
59.8053
59.7811
59.7838
59.8087
59.8591
59.8697
59.8217
59.7917
59.8301
59.9056
59.9812
59.9833
59.9687
59.9855
60.373
60.797
60.546
59.9730
59.9573
60.126
60.756
60.1354
60.1611
60.1561
60.1440
60.1682
60.2271
60.2302
60.1453
60.1075
60.1692
60.2342
60.2524
60.2123
60.1705
60.1491
60.1461
60.1695
60.1711
60.904
60.177
60.239
60.628
60.940
60.680
60.186
59.9918
59.9957
60.88
59.9821
59.8579
59.7654
59.7731
59.8155
59.8540
59.8660
59.8441
59.8110
59.7864
59.8068
59.8404
59.7769
59.6924
59.7041
59.7810
59.8286
59.8141
59.7732
59.7647
59.7833
59.8171
59.8602
59.8432
59.7902
59.7898
59.8552
59.9362
59.9920
59.9837
59.9748
60.47
60.598
60.929
60.352
59.9612
59.9702
60.336
60.943
60.1491
60.1592
60.1456
60.1343
60.1724
60.2269
60.1905
60.1057
60.1018
60.1803
60.2292
60.2277
60.1851
60.1525
60.1336
60.1413
60.1732
60.1541
60.715
60.288
60.480
60.865
60.1110
60.697
60.272
60.145
60.285
60.391
59.9758
59.8451
59.7782
59.7968
59.8355
59.8728
59.8712
59.8406
59.8035
59.7927
59.8300
59.8410
59.7625
59.7085
59.7622
59.8371
59.8696
59.8410
59.8083
59.8105
59.8325
59.8654
59.8928
59.8512
59.8058
59.8236
59.8923
59.9727
59.9961
59.9856
59.9939
60.319
60.835
60.989
60.233
59.9827
60.189
60.773
60.1402
60.1931
60.1912
60.1737
60.1800
60.2371
60.2795
60.2098
60.1352
60.1692
60.2462
60.2781
60.2517
60.2022
60.1752
60.1645
60.1834
60.2150
60.1668
60.860
60.660
60.975
60.1340
60.1318
60.886
60.562
60.542
60.683
60.660
59.9726
59.8607
59.8302
59.8606
59.9002
59.9284
59.9113
59.8787
59.8473
59.8491
59.8902
59.8623
59.7671
59.7422
59.8106
59.8747
59.8924
59.8513
59.8327
59.8389
59.8708
59.9245
59.9374
59.8863
59.8654
59.9093
59.9903
60.577
60.577
60.386
60.548
60.1042
60.1540
60.1280
60.487
60.284
60.779
60.1439
60.2064
60.2364
60.2297
60.2104
60.2308
60.2948
60.2956
60.1994
60.1674
60.2331
60.2991
60.3144
60.2706
60.2313
60.2179
60.2231
60.2541
60.2549
60.1720
60.1092
60.1166
60.1544
60.1867
60.1519
60.997
60.787
60.793
60.907
60.595
59.9382
59.8486
59.8567
59.9014
59.9429
59.9551
59.9326
59.8961
59.8786
59.9105
59.9419
59.8702
59.7945
59.8172
59.8956
59.9400
59.9227
59.8780
59.8727
59.8882
59.9242
59.9678
59.9403
59.8856
59.8831
59.9443
60.261
60.761
60.649
60.598
60.948
60.1496
60.1842
60.1301
60.652
60.786
60.1412
60.2059
60.2640
60.2725
60.2551
60.2445
60.2825
60.3369
60.2875
60.2027
60.2085
60.2796
60.3203
60.3151
60.2658
60.2338
60.2168
60.2277
60.2592
60.2171
60.1288
60.958
60.1226
60.1614
60.1718
60.1267
60.867
60.797
60.919
60.917
60.97
59.8860
59.8372
59.8652
59.8971
59.9247
59.9166
59.8795
59.8339
59.8316
59.8733
59.8650
59.7673
59.7170
59.7769
59.8520
59.8794
59.8447
59.8170
59.8284
59.8551
59.8945
59.9156
59.8691
59.8275
59.8613
59.9348
60.73
60.194
59.9968
60.52
60.531
60.1026
60.951
60.180
59.9801
60.195
60.859
60.1559
60.1944
60.1877
60.1705
60.1804
60.2355
60.2596
60.1837
60.1264
60.1716
60.2450
60.2729
60.2459
60.2050
60.1785
60.1728
60.1984
60.2150
60.1433
60.588
60.492
60.911
60.1269
60.1147
60.593
60.258
60.241
60.420
60.319
59.9266
59.8248
59.8114
59.8536
59.8958
59.9140
59.8906
59.8567
59.8311
59.8465
59.8848
59.8380
59.7448
59.7357
59.8087
59.8670
59.8747
59.8354
59.8160
59.8239
59.8516
59.8992
59.8980
59.8373
59.8206
59.8787
59.9617
60.302
60.249
60.98
60.371
60.883
60.1307
60.940
60.229
60.178
60.712
60.1312
60.1906
60.2067
60.1982
60.1841
60.2116
60.2637
60.2457
60.1525
60.1289
60.1968
60.2600
60.2768
60.2333
60.1944
60.1770
60.1839
60.2198
60.2110
60.1262
60.683
60.753
60.1159
60.1405
60.1061
60.589
60.402
60.500
60.608
60.194
59.8944
59.8132
59.8244
59.8662
59.8994
59.9026
59.8750
59.8382
59.8201
59.8457
59.8716
59.7957
59.7270
59.7546
59.8285
59.8732
59.8569
59.8266
59.8251
59.8361
59.8721
59.9101
59.8757
59.8241
59.8357
59.9012
59.9706
60.2
59.9801
59.9806
60.186
60.743
60.964
60.277
59.9747
60.39
60.643
60.1250
60.1825
60.1938
60.1789
60.1721
60.2162
60.2670
60.2061
60.1219
60.1347
60.2075
60.2511
60.2411
60.1898
60.1563
60.1405
60.1602
60.1866
60.1438
60.580
60.264
60.539
60.893
60.925
60.438
60.91
60.45
60.204
60.262
59.9493
59.8223
59.7753
59.8063
59.8479
59.8793
59.8647
59.8308
59.7943
59.7923
59.8340
59.8170
59.7183
59.6744
59.7341
59.8007
59.8237
59.7883
59.7691
59.7733
59.7921
59.8360
59.8656
59.8150
59.7782
59.8125
59.8882
59.9643
59.9763
59.9577
59.9661
60.177
60.660
60.674
59.9881
59.9503
59.9834
60.481
60.1197
60.1605
60.1567
60.1337
60.1426
60.1918
60.2199
60.1478
60.951
60.1397
60.2155
60.2445
60.2170
60.1715
60.1432
60.1360
60.1641
60.1847
60.1234
60.448
60.338
60.659
60.970
60.849
60.321
60.33
60.0
60.151
60.71
59.9002
59.7886
59.7702
59.8131
59.8540
59.8816
59.8628
59.8230
59.7971
59.8117
59.8530
59.8123
59.7229
59.7139
59.7845
59.8426
59.8523
59.8050
59.7881
59.7984
59.8234
59.8707
59.8708
59.8113
59.7875
59.8377
59.9216
59.9869
59.9822
59.9697
59.9941
60.464
60.923
60.610
59.9867
59.9824
60.399
60.1022
60.1673
60.1907
60.1793
60.1634
60.1859
60.2463
60.2358
60.1403
60.1102
60.1761
60.2336
60.2518
60.2071
60.1613
60.1392
60.1468
60.1806
60.1859
60.1009
60.394
60.557
60.981
60.1272
60.957
60.459
60.260
60.367
60.514
60.162
59.8916
59.8133
59.8272
59.8692
59.8977
59.9020
59.8759
59.8369
59.8133
59.8423
59.8631
59.7887
59.7129
59.7468
59.8302
59.8707
59.8526
59.8166
59.8133
59.8386
59.8853
59.9275
59.8956
59.8446
59.8481
59.9107
59.9907
60.328
60.159
60.113
60.482
60.973
60.1195
60.502
59.9885
60.146
60.838
60.1467
60.2025
60.2136
60.1993
60.1961
60.2386
60.2886
60.2346
60.1545
60.1676
60.2416
60.2808
60.2737
60.2288
60.2009
60.1903
60.2007
60.2305
60.1958
60.1100
60.641
60.826
60.1214
60.1294
60.816
60.389
60.296
60.452
60.495
59.9687
59.8441
59.7995
59.8386
59.8835
59.9172
59.9074
59.8731
59.8322
59.8312
59.8767
59.8687
59.7718
59.7286
59.7851
59.8544
59.8798
59.8473
59.8191
59.8175
59.8408
59.8797
59.9084
59.8666
59.8311
59.8630
59.9367
60.142
60.247
60.93
60.163
60.568
60.1115
60.1093
60.285
60.10
60.488
60.1098
60.1704
60.2095
60.2050
60.1914
60.2023
60.2557
60.2784
60.1887
60.1282
60.1766
60.2502
60.2811
60.2589
60.2111
60.1836
60.1770
60.2045
60.2276
60.1709
60.991
60.908
60.1231
60.1571
60.1462
60.975
60.592
60.516
60.656
60.540
59.9432
59.8471
59.8322
59.8738
59.9142
59.9329
59.9094
59.8728
59.8493
59.8661
59.9056
59.8594
59.7714
59.7721
59.8450
59.8979
59.8975
59.8559
59.8424
59.8545
59.8864
59.9313
59.9259
59.8722
59.8582
59.9098
59.9847
60.426
60.327
60.171
60.401
60.917
60.1333
60.910
60.111
60.68
60.665
60.1332
60.2011
60.2258
60.2168
60.2066
60.2418
60.3030
60.2809
60.1884
60.1695
60.2381
60.2940
60.2961
60.2475
60.2142
60.1961
60.2001
60.2285
60.2152
60.1296
60.763
60.993
60.1428
60.1646
60.1255
60.761
60.556
60.676
60.785
60.278
59.8975
59.8215
59.8400
59.8907
59.9279
59.9236
59.8952
59.8605
59.8492
59.8777
59.8845
59.7966
59.7301
59.7683
59.8422
59.8736
59.8492
59.8121
59.8126
59.8311
59.8689
59.9054
59.8725
59.8282
59.8429
59.9122
59.9958
60.311
60.111
60.42
60.410
60.938
60.1112
60.338
59.9783
59.9986
60.603
60.1228
60.1764
60.1865
60.1693
60.1642
60.2093
60.2565
60.1951
60.1173
60.1354
60.2138
60.2561
60.2409
60.1933
60.1605
60.1525
60.1720
60.2025
60.1524
60.615
60.317
60.611
60.977
60.1021
60.513
60.98
60.54
60.185
60.197
59.9352
59.8148
59.7711
59.8041
59.8437
59.8752
59.8603
59.8239
59.7916
59.7917
59.8321
59.8209
59.7315
59.6982
59.7624
59.8298
59.8530
59.8153
59.7843
59.7907
59.8143
59.8601
59.8796
59.8236
59.7857
59.8198
59.9033
59.9820
59.9950
59.9787
59.9898
60.424
60.941
60.860
60.74
59.9771
60.286
60.991
60.1641
60.2002
60.1972
60.1819
60.1938
60.2535
60.2766
60.1911
60.1364
60.1841
60.2512
60.2731
60.2393
60.1957
60.1727
60.1745
60.2034
60.2169
60.1474
60.760
60.743
60.1154
60.1520
60.1401
60.928
60.601
60.657
60.794
60.569
59.9390
59.8372
59.8336
59.8766
59.9162
59.9266
59.8954
59.8614
59.8378
59.8580
59.8946
59.8339
59.7431
59.7429
59.8182
59.8798
59.8846
59.8461
59.8351
59.8424
59.8720
59.9197
59.9131
59.8582
59.8485
59.9032
59.9812
60.365
60.251
60.95
60.341
60.872
60.1238
60.763
59.9995
59.9997
60.620
60.1233
60.1848
60.2038
60.1912
60.1798
60.2052
60.2627
60.2376
60.1445
60.1279
60.1979
60.2552
60.2616
60.2120
60.1757
60.1640
60.1678
60.1954
60.1771
60.830
60.221
60.358
60.778
60.992
60.576
60.71
59.9887
59.9992
60.39
59.9559
59.8309
59.7592
59.7713
59.8178
59.8592
59.8627
59.8356
59.7964
59.7841
59.8186
59.8327
59.7477
59.6804
59.7174
59.7930
59.8283
59.8070
59.7679
59.7584
59.7762
59.8207
59.8589
59.8228
59.7705
59.7764
59.8469
59.9366
59.9831
59.9676
59.9616
60.12
60.576
60.838
60.190
59.9612
59.9877
60.524
60.1187
60.1642
60.1696
60.1531
60.1566
60.2130
60.2629
60.2052
60.1276
60.1463
60.2204
60.2656
60.2533
60.2036
60.1751
60.1627
60.1830
60.2128
60.1689
60.850
60.654
60.1024
60.1389
60.1413
60.935
60.583
60.555
60.709
60.708
59.9808
59.8573
59.8132
59.8419
59.8820
59.9123
59.8941
59.8616
59.8307
59.8374
59.8768
59.8622
59.7751
59.7453
59.8076
59.8749
59.8983
59.8585
59.8327
59.8427
59.8745
59.9138
59.9282
59.8771
59.8443
59.8841
59.9614
60.361
60.456
60.231
60.282
60.702
60.1192
60.1149
60.406
60.104
60.582
60.1223
60.1869
60.2184
60.2122
60.2003
60.2213
60.2855
60.2947
60.2019
60.1513
60.2061
60.2719
60.2963
60.2567
60.2063
60.1777
60.1788
60.2012
60.2094
60.1273
60.523
60.573
60.960
60.1229
60.1065
60.592
60.365
60.424
60.548
60.351
59.9185
59.8218
59.8169
59.8547
59.8928
59.9058
59.8797
59.8372
59.8111
59.8327
59.8708
59.8114
59.7218
59.7259
59.8026
59.8549
59.8564
59.8091
59.7926
59.8042
59.8430
59.8918
59.8811
59.8253
59.8145
59.8730
59.9580
60.193
60.46
59.9919
60.172
60.741
60.1099
60.578
59.9842
59.9886
60.493
60.1177
60.1779
60.1928
60.1806
60.1683
60.1993
60.2574
60.2312
60.1404
60.1325
60.2048
60.2604
60.2679
60.2169
60.1820
60.1697
60.1801
60.2131
60.1977
60.1119
60.568
60.730
60.1104
60.1304
60.865
60.399
60.294
60.396
60.452
59.9862
59.8579
59.7864
59.8087
59.8591
59.8975
59.8964
59.8609
59.8274
59.8192
59.8571
59.8718
59.7846
59.7226
59.7660
59.8375
59.8698
59.8439
59.8086
59.8018
59.8189
59.8591
59.8939
59.8550
59.8052
59.8236
59.8932
59.9700
60.6
59.9796
59.9741
60.153
60.731
60.941
60.177
59.9677
59.9980
60.661
60.1324
60.1824
60.1889
60.1706
60.1690
60.2192
60.2645
60.1938
60.1138
60.1379
60.2080
60.2411
60.2253
60.1783
60.1443
60.1333
60.1584
60.1909
60.1393
60.542
60.282
60.621
60.1030
60.1052
60.562
60.237
60.188
60.342
60.332
59.9421
59.8175
59.7772
59.8138
59.8543
59.8857
59.8701
59.8346
59.8063
59.8129
59.8566
59.8338
59.7362
59.7045
59.7683
59.8327
59.8487
59.8115
59.7853
59.7882
59.8165
59.8706
59.8992
59.8493
59.8157
59.8559
59.9394
60.168
60.253
60.42
60.76
60.544
60.1054
60.889
60.30
59.9819
60.355
60.1036
60.1679
60.1993
60.1939
60.1738
60.1905
60.2460
60.2620
60.1815
60.1328
60.1865
60.2560
60.2836
60.2458
60.2007
60.1768
60.1778
60.2050
60.2138
60.1393
60.659
60.584
60.943
60.1301
60.1053
60.557
60.268
60.293
60.423
60.198
59.9036
59.8082
59.8077
59.8521
59.8916
59.9063
59.8789
59.8411
59.8137
59.8376
59.8780
59.8141
59.7212
59.7284
59.8064
59.8575
59.8522
59.8123
59.8001
59.8129
59.8440
59.8894
59.8747
59.8093
59.7967
59.8568
59.9419
60.5
59.9886
59.9778
60.104
60.682
60.1117
60.638
59.9894
59.9919
60.523
60.1149
60.1750
60.1933
60.1803
60.1664
60.1970
60.2551
60.2216
60.1271
60.1127
60.1808
60.2358
60.2501
60.2059
60.1674
60.1472
60.1551
60.1899
60.1775
60.946
60.429
60.603
60.1015
60.1199
60.768
60.341
60.189
60.251
60.353
59.9871
59.8616
59.7918
59.8145
59.8555
59.8855
59.8773
59.8443
59.8077
59.7952
59.8328
59.8477
59.7651
59.7012
59.7424
59.8192
59.8578
59.8383
59.8044
59.8040
59.8277
59.8682
59.9071
59.8709
59.8229
59.8344
59.9010
59.9765
60.131
59.9962
59.9903
60.276
60.787
60.993
60.334
59.9826
60.175
60.845
60.1513
60.2017
60.2008
60.1826
60.1889
60.2427
60.2868
60.2188
60.1430
60.1691
60.2426
60.2792
60.2651
60.2175
60.1840
60.1681
60.1845
60.2174
60.1727
60.816
60.497
60.767
60.1171
60.1173
60.687
60.307
60.311
60.495
60.517
59.9606
59.8482
59.8180
59.8543
59.8910
59.9161
59.9038
59.8687
59.8360
59.8449
59.8898
59.8626
59.7642
59.7337
59.7966
59.8619
59.8813
59.8435
59.8167
59.8254
59.8569
59.9067
59.9235
59.8693
59.8379
59.8766
59.9510
60.229
60.297
60.102
60.247
60.730
60.1176
60.1030
60.207
59.9939
60.417
60.1034
60.1691
60.2049
60.1974
60.1765
60.1848
60.2454
60.2587
60.1681
60.1188
60.1727
60.2433
60.2693
60.2326
60.1939
60.1741
60.1686
60.1952
60.2048
60.1240
60.476
60.503
60.925
60.1245
60.1005
60.423
60.128
60.110
60.268
60.0
59.8715
59.7730
59.7718
59.8172
59.8534
59.8652
59.8417
59.8057
59.7893
59.8116
59.8425
59.7798
59.6934
59.7006
59.7777
59.8254
59.8189
59.7784
59.7666
59.7845
59.8240
59.8691
59.8520
59.7911
59.7815
59.8433
59.9256
59.9827
59.9663
59.9533
59.9881
60.422
60.743
60.295
59.9604
59.9652
60.324
60.1009
60.1647
60.1829
60.1743
60.1673
60.2005
60.2562
60.2227
60.1337
60.1253
60.1976
60.2501
60.2539
60.2038
60.1643
60.1468
60.1603
60.1957
60.1779
60.917
60.478
60.710
60.1159
60.1340
60.910
60.441
60.265
60.412
60.510
59.9989
59.8722
59.8037
59.8199
59.8616
59.8993
59.8961
59.8669
59.8325
59.8192
59.8502
59.8602
59.7724
59.7138
59.7558
59.8257
59.8596
59.8382
59.8093
59.8075
59.8289
59.8808
59.9126
59.8731
59.8272
59.8429
59.9155
60.19
60.406
60.140
60.54
60.453
60.1004
60.1172
60.480
59.9946
60.219
60.813
60.1440
60.2020
60.2044
60.1869
60.1850
60.2314
60.2771
60.2152
60.1469
60.1753
60.2513
60.2875
60.2650
60.2134
60.1862
60.1791
60.2021
60.2331
60.1728
60.781
60.554
60.929
60.1271
60.1222
60.643
60.253
60.214
60.345
60.367
59.9495
59.8343
59.8039
59.8360
59.8742
59.9021
59.8912
59.8629
59.8296
59.8316
59.8771
59.8530
59.7576
59.7269
59.7965
59.8579
59.8692
59.8291
59.8071
59.8108
59.8319
59.8724
59.8892
59.8416
59.8094
59.8450
59.9265
60.12
60.61
59.9857
59.9992
60.484
60.953
60.844
60.42
59.9789
60.294
60.969
60.1656
60.1954
60.1850
60.1650
60.1856
60.2463
60.2530
60.1609
60.1109
60.1660
60.2347
60.2568
60.2145
60.1741
60.1529
60.1497
60.1806
60.1960
60.1181
60.395
60.429
60.908
60.1265
60.1106
60.567
60.289
60.283
60.412
60.159
59.8962
59.7983
59.7923
59.8349
59.8661
59.8755
59.8485
59.8082
59.7872
59.8086
59.8459
59.7888
59.7025
59.7132
59.7928
59.8449
59.8437
59.7995
59.7878
59.8055
59.8446
59.8887
59.8703
59.8120
59.8021
59.8576
59.9361
59.9949
59.9872
59.9797
60.73
60.590
60.930
60.474
59.9743
59.9819
60.451
60.1110
60.1749
60.1894
60.1748
60.1615
60.2008
60.2593
60.2301
60.1439
60.1378
60.2073
60.2593
60.2587
60.2094
60.1780
60.1657
60.1734
60.1961
60.1750
60.915
60.425
60.616
60.999
60.1162
60.757
60.306
60.156
60.320
60.469
59.9911
59.8592
59.7918
59.8139
59.8627
59.9065
59.9072
59.8711
59.8336
59.8216
59.8591
59.8738
59.7860
59.7261
59.7650
59.8371
59.8766
59.8557
59.8201
59.8178
59.8374
59.8844
59.9237
59.8868
59.8432
59.8555
59.9258
60.92
60.370
60.226
60.271
60.685
60.1249
60.1369
60.639
60.127
60.468
60.1135
60.1776
60.2194
60.2210
60.2031
60.2015
60.2538
60.3001
60.2301
60.1561
60.1855
60.2629
60.2994
60.2779
60.2299
60.2024
60.1982
60.2178
60.2446
60.1907
60.1027
60.782
60.1109
60.1504
60.1460
60.902
60.511
60.535
60.711
60.668
59.9600
59.8355
59.8102
59.8448
59.8826
59.9057
59.8902
59.8543
59.8181
59.8219
59.8675
59.8395
59.7507
59.7310
59.8006
59.8663
59.8814
59.8369
59.8108
59.8143
59.8382
59.8834
59.8965
59.8325
59.7940
59.8355
59.9135
59.9885
59.9947
59.9774
59.9875
60.328
60.801
60.699
59.9933
59.9771
60.256
60.859
60.1495
60.1822
60.1727
60.1512
60.1669
60.2243
60.2318
60.1436
60.973
60.1549
60.2247
60.2435
60.2011
60.1556
60.1336
60.1351
60.1623
60.1649
60.883
60.157
60.180
60.623
60.952
60.690
60.240
60.68
60.167
60.353
60.111
59.8903
59.7950
59.7932
59.8363
59.8695
59.8768
59.8472
59.8097
59.7885
59.8107
59.8441
59.7765
59.6913
59.7040
59.7882
59.8421
59.8365
59.7935
59.7854
59.8016
59.8346
59.8875
59.8751
59.8211
59.8135
59.8724
59.9579
60.124
59.9961
59.9828
60.114
60.666
60.1026
60.511
59.9856
59.9947
60.515
60.1136
60.1748
60.1930
60.1774
60.1638
60.1971
60.2567
60.2170
60.1286
60.1241
60.2004
60.2545
60.2565
60.2092
60.1735
60.1609
60.1758
60.2080
60.1810
60.861
60.313
60.517
60.910
60.1081
60.678
60.262
60.98
60.186
60.357
59.9792
59.8541
59.7878
59.8097
59.8575
59.8975
59.8959
59.8646
59.8212
59.8054
59.8398
59.8480
59.7659
59.7101
59.7620
59.8384
59.8700
59.8386
59.8000
59.7948
59.8194
59.8620
59.8956
59.8550
59.8106
59.8287
59.8962
59.9699
60.30
59.9833
59.9822
60.267
60.792
60.965
60.250
59.9811
60.127
60.798
60.1430
60.1859
60.1850
60.1703
60.1797
60.2281
60.2592
60.1811
60.1093
60.1383
60.2121
60.2475
60.2320
60.1765
60.1412
60.1334
60.1581
60.1879
60.1357
60.504
60.255
60.598
60.1017
60.1025
60.519
60.164
60.137
60.284
60.260
59.9221
59.7968
59.7538
59.7925
59.8350
59.8601
59.8392
59.8019
59.7743
59.7838
59.8267
59.8042
59.7099
59.6818
59.7458
59.8129
59.8351
59.7982
59.7772
59.7837
59.8126
59.8602
59.8784
59.8238
59.7924
59.8350
59.9116
59.9854
59.9885
59.9647
59.9751
60.202
60.659
60.482
59.9704
59.9455
60.11
60.696
60.1317
60.1667
60.1646
60.1463
60.1648
60.2274
60.2350
60.1461
60.1067
60.1617
60.2349
60.2561
60.2158
60.1686
60.1455
60.1484
60.1734
60.1769
60.966
60.262
60.256
60.664
60.1020
60.782
60.276
60.3
60.95
60.311
60.153
59.9005
59.8053
59.8021
59.8498
59.8897
59.9083
59.8806
59.8430
59.8174
59.8357
59.8720
59.8106
59.7227
59.7327
59.8105
59.8584
59.8485
59.8053
59.7963
59.8144
59.8488
59.8942
59.8782
59.8210
59.8124
59.8648
59.9514
60.148
60.34
59.9893
60.187
60.741
60.1150
60.718
60.20
60.70
60.650
60.1272
60.1863
60.2029
60.1884
60.1714
60.1993
60.2547
60.2284
60.1463
60.1397
60.2150
60.2711
60.2779
60.2348
60.2032
60.1871
60.1946
60.2243
60.2026
60.1126
60.653
60.849
60.1191
60.1411
60.1013
60.506
60.379
60.414
60.466
59.9876
59.8641
59.8010
59.8240
59.8648
59.8990
59.8888
59.8610
59.8254
59.8160
59.8501
59.8647
59.7832
59.7206
59.7642
59.8400
59.8805
59.8605
59.8185
59.8128
59.8283
59.8713
59.9072
59.8630
59.8138
59.8316
59.9048
59.9826
60.93
59.9910
59.9903
60.278
60.826
60.1023
60.224
59.9698
60.42
60.714
60.1415
60.1924
60.1921
60.1695
60.1657
60.2181
60.2614
60.1903
60.1102
60.1337
60.2064
60.2411
60.2189
60.1674
60.1380
60.1313
60.1507
60.1803
60.1300
60.436
60.177
60.477
60.850
60.887
60.386
60.35
60.51
60.226
60.181
59.9235
59.8046
59.7728
59.8065
59.8446
59.8771
59.8622
59.8256
59.7881
59.7884
59.8289
59.8042
59.7044
59.6716
59.7381
59.8059
59.8226
59.7816
59.7575
59.7619
59.7941
59.8470
59.8578
59.8039
59.7724
59.8153
59.8913
59.9655
59.9724
59.9541
59.9629
60.54
60.508
60.400
59.9568
59.9278
59.9740
60.384
60.1068
60.1426
60.1390
60.1208
60.1348
60.1941
60.2080
60.1227
60.755
60.1268
60.1974
60.2274
60.2004
60.1603
60.1355
60.1311
60.1585
60.1735
60.986
60.222
60.202
60.618
60.948
60.717
60.165
59.9859
59.9900
60.83
59.9920
59.8746
59.7768
59.7686
59.8151
59.8582
59.8741
59.8521
59.8165
59.7905
59.8093
59.8453
59.7914
59.7070
59.7170
59.7949
59.8451
59.8485
59.8060
59.7862
59.7985
59.8312
59.8781
59.8659
59.8057
59.7958
59.8525
59.9331
59.9945
59.9867
59.9772
60.79
60.663
60.1050
60.594
59.9913
59.9946
60.565
60.1204
60.1790
60.1924
60.1775
60.1673
60.2016
60.2622
60.2303
60.1354
60.1216
60.1956
60.2505
60.2536
60.2063
60.1738
60.1598
60.1653
60.1985
60.1836
60.961
60.425
60.592
60.1032
60.1218
60.794
60.346
60.206
60.275
60.439
59.9917
59.8600
59.7827
59.8062
59.8465
59.8773
59.8701
59.8404
59.7980
59.7820
59.8150
59.8312
59.7524
59.6885
59.7299
59.8053
59.8434
59.8250
59.7931
59.7885
59.8043
59.8438
59.8842
59.8482
59.8013
59.8171
59.8817
59.9590
59.9935
59.9718
59.9659
60.29
60.566
60.853
60.147
59.9546
59.9744
60.399
60.1042
60.1551
60.1607
60.1449
60.1455
60.1947
60.2407
60.1841
60.1120
60.1347
60.2123
60.2493
60.2342
60.1835
60.1526
60.1449
60.1604
60.1891
60.1422
60.510
60.180
60.479
60.878
60.964
60.493
60.126
60.77
60.224
60.277
59.9414
59.8217
59.7825
59.8201
59.8704
59.9006
59.8844
59.8499
59.8126
59.8146
59.8631
59.8528
59.7606
59.7265
59.7919
59.8576
59.8735
59.8313
59.8045
59.8039
59.8296
59.8825
59.9038
59.8536
59.8203
59.8528
59.9287
60.78
60.229
60.77
60.222
60.704
60.1152
60.1076
60.289
59.9986
60.482
60.1078
60.1710
60.2047
60.1981
60.1771
60.1880
60.2470
60.2665
60.1847
60.1343
60.1840
60.2539
60.2788
60.2476
60.2074
60.1830
60.1840
60.2106
60.2221
60.1456
60.611
60.565
60.974
60.1332
60.1183
60.667
60.417
60.477
60.612
60.372
59.9191
59.8215
59.8141
59.8541
59.8885
59.9026
59.8769
59.8395
59.8165
59.8360
59.8777
59.8226
59.7406
59.7517
59.8262
59.8754
59.8732
59.8359
59.8279
59.8465
59.8808
59.9220
59.9063
59.8448
59.8272
59.8846
59.9725
60.320
60.199
60.47
60.312
60.871
60.1259
60.794
60.19
60.51
60.675
60.1365
60.1984
60.2182
60.2052
60.1929
60.2259
60.2828
60.2565
60.1664
60.1583
60.2299
60.2798
60.2770
60.2271
60.1867
60.1677
60.1751
60.2040
60.1894
60.1038
60.478
60.633
60.1070
60.1370
60.1001
60.541
60.364
60.470
60.554
59.9992
59.8748
59.8059
59.8340
59.8707
59.9012
59.8943
59.8677
59.8321
59.8190
59.8520
59.8664
59.7739
59.7056
59.7469
59.8262
59.8557
59.8304
59.7943
59.7939
59.8144
59.8561
59.8943
59.8602
59.8140
59.8270
59.8970
59.9781
60.168
60.30
60.4
60.391
60.913
60.1067
60.249
59.9669
59.9998
60.678
60.1298
60.1829
60.1877
60.1693
60.1658
60.2181
60.2717
60.2139
60.1476
60.1907
60.2832
60.3352
60.3288
60.2948
60.2804
60.2887
60.3246
60.3671
60.3277
60.2574
60.2565
60.3162
60.3833
60.4110
60.3932
60.3922
60.4350
60.4921
60.5281
60.4687
60.4079
60.4442
60.5455
60.6548
60.7407
60.7843
60.8163
60.8730
60.9866
61.1119
61.1262
61.1413
61.2668
61.4487
61.6003
61.6798
61.7562
61.8701
62.188
62.1928
62.3291
62.4033
62.5173
62.7071
62.9351
63.1428
63.2834
63.4432
63.6465
63.8659
64.287
64.1184
64.2725
64.5024
64.7515
64.9968
65.1982
65.3749
65.5777
65.8329
66.290
66.1406
66.3450
66.6258
66.8776
67.751
67.2561
67.4529
67.6860
67.9515
68.1326
68.2930
68.5303
68.8075
69.665
69.2748
69.4960
69.7466
70.28
70.1627
70.3135
70.5633
70.8607
71.1649
71.4214
71.6526
71.9047
72.2008
72.4155
72.6293
72.9487
73.2845
73.5689
73.8294
74.1058
74.4158
74.7357
74.9803
75.2491
75.5918
75.9596
76.2644
76.5637
76.8875
77.2029
77.4334
77.7115
78.537
78.4234
78.7676
79.618
79.3687
79.7134
79.9617
80.2418
80.5961
80.9355
81.2272
81.5102
81.8100
82.1289
82.3794
82.6587
82.9949
83.3300
83.6210
83.9183
84.2334
84.4789
84.7129
85.311
85.3889
85.7309
86.268
86.3278
86.6445
86.8993
87.2312
87.5945
87.9204
88.2363
88.5618
88.9133
89.2044
89.5094
89.8808
90.2652
90.6049
90.9497
91.2895
91.5668
91.8921
92.2547
92.6387
92.9723
93.3034
93.6414
93.9101
94.2541
94.6226
94.9560
95.2654
95.5814
95.8945
96.1685
96.4944
96.8465
97.1678
97.4825
97.7940
98.342
98.3201
98.6641
99.227
99.3336
99.6517
99.9570
100.2501
100.6088
100.9597
101.2954
101.6280
101.9624
102.2539
102.5861
102.9752
103.3387
103.6865
104.137
104.2981
104.6342
105.121
105.3866
105.7155
106.607
106.3396
106.6789
107.330
107.3696
107.6792
108.1
108.2773
108.5816
108.9296
109.2651
109.5873
109.8823
110.1319
110.4402
110.8003
111.1339
111.4423
111.7446
112.336
112.3820
112.7263
113.626
113.3973
113.6999
114.80
114.3850
114.7582
115.1074
115.4245
115.7114
116.484
116.4301
116.7781
117.1211
117.4139
117.7317
118.776
118.4192
118.7339
119.464
119.3270
119.6476
119.9870
120.3123
120.6195
120.8686
121.1626
121.5140
121.8512
122.1640
122.4455
122.7554
123.1007
123.4430
123.7695
124.811
124.3771
124.7323
125.996
125.4486
125.7566
126.543
126.3933
126.7671
127.990
127.4209
127.7088
128.450
128.3871
128.7014
129.51
129.2805
129.6007
129.9373
130.2622
130.5458
130.8001
131.1138
131.4657
131.7762
132.679
132.3618
132.6968
133.409
133.3700
133.6784
133.9771
134.3364
134.6969
135.389
135.3276
135.6420
136.55
136.3534
136.6898
136.9768
137.3064
137.6526
137.9704
138.2745
138.5520
138.8737
139.2085
139.5289
139.7895
140.720
140.4165
140.7423
141.512
141.3284
141.6527
141.9953
142.3257
142.6306
142.9317
143.2932
143.6507
143.9748
144.2653
144.5924
144.9587
145.2967
145.5914
145.8999
146.2388
146.5662
146.8715
147.1482
147.4631
147.7945
148.1081
148.3641
148.6526
148.9970
149.3082
149.5960
149.8959
150.2279
150.5640
150.8803
151.1680
151.5066
151.8623
152.1945
152.4850
152.8050
153.1667
153.5036
153.7907
154.994
154.4361
154.7564
155.481
155.3287
155.6523
155.9803
156.2651
156.5299
156.8547
157.1754
157.4734
157.7572
158.770
158.4143
158.7376
159.246
159.3577
159.7120
160.353
160.3289
160.6545
160.9998
161.3275
161.6138
161.9353
162.2701
162.5773
162.8494
163.1553
163.4825
163.7811
164.408
164.3477
164.6747
164.9776
165.2607
165.5776
165.9119
166.2265
166.5118
166.8543
167.2050
167.5134
167.8125
168.1556
168.4913
168.7955
169.991
169.4327
169.7462
170.290
170.3214
170.6494
170.9650
171.2260
171.5144
171.8416
172.1490
172.4322
172.7477
173.789
173.3899
173.6830
174.289
174.3710
174.6680
174.9691
175.3157
175.6502
175.9428
176.2574
176.5879
176.8890
177.1641
177.4816
177.8057
178.785
178.3546
178.6876
178.9992
179.2795
179.5866
179.9157
180.2266
180.5190
180.8667
181.2056
181.4998
181.8072
182.1520
182.4792
182.7691
183.862
183.4020
183.6940
183.9839
184.3062
184.6104
184.8713
185.1787
185.4946
185.7836
186.816
186.4101
186.7266
187.142
187.3491
187.6905
187.9886
188.2911
188.6349
188.9629
189.2554
189.5769
189.8899
190.1735
190.4657
190.7919
191.883
191.3556
191.6752
191.9818
192.2645
192.5756
192.9057
193.2093
193.5102
193.8568
194.1786
194.4711
194.8037
195.1377
195.4331
195.7469
196.733
196.3679
196.6527
196.9711
197.2706
197.5399
197.8610
198.1689
198.4510
198.7597
199.887
199.3927
199.6998
200.431
200.3549
200.6548
200.9945
201.3221
201.6155
201.9375
202.2517
202.5344
202.8407
203.1608
203.4334
203.7208
204.374
204.3312
204.6254
204.9529
205.2640
205.5570
205.8980
206.2171
206.5119
206.8444
207.1726
207.4648
207.7845
208.948
208.3772
208.6802
208.9977
209.2701
209.5628
209.8765
210.1655
210.4636
210.7864
211.909
211.3938
211.7361
212.458
212.3442
212.6761
212.9876
213.2828
213.6090
213.9073
214.1882
214.5036
214.8000
215.680
215.3825
215.6814
215.9703
216.2931
216.6054
216.8940
217.2312
217.5472
217.8430
218.1779
218.5000
218.7949
219.1182
219.4185
219.6991
220.157
220.3127
220.5850
220.9036
221.1996
221.4855
221.8049
222.1165
222.4145
222.7510
223.604
223.3628
223.6930
223.9996
224.3005
224.6233
224.9135
225.2050
225.5229
225.7989
226.882
226.3988
226.6865
226.9935
227.3069
227.5945
227.9231
228.2444
228.5371
228.8623
229.1798
229.4713
229.7914
230.872
230.3695
230.6852
230.9685
231.2488
231.5550
231.8409
232.1419
232.4589
232.7473
233.689
233.3874
233.6803
234.38
234.3136
234.6053
234.9265
235.2168
235.5001
235.8106
236.869
236.3806
236.6788
236.9596
237.2720
237.5791
237.8666
238.1983
238.5062
238.8051
239.1295
239.4255
239.7345
240.420
240.3208
240.6275
240.9201
241.1914
241.5005
241.7897
242.857
242.4029
242.6934
243.169
243.3302
243.6237
243.9506
244.2597
244.5627
244.8751
245.1569
245.4607
245.7624
246.345
246.3429
246.6341
246.9279
247.2439
247.5358
247.8611
248.1777
248.4738
248.7986
249.1032
249.4101
249.7207
249.9994
250.3082
250.6050
250.8824
251.1900
251.4781
251.7849
252.957
252.3847
252.7156
253.241
253.3315
253.6535
253.9473
254.2661
254.5617
254.8453
255.1580
255.4349
255.7366
256.302
256.3137
256.6318
256.9278
257.2447
257.5616
257.8553
258.1759
258.4793
258.7888
259.941
259.3718
259.6774
259.9607
260.2473
260.5464
260.8278
261.1384
261.4342
261.7378
262.564
262.3484
262.6660
262.9674
263.2691
263.5733
263.8488
264.1532
264.4358
264.7211
265.130
265.2909
265.6011
265.8960
266.2040
266.5152
266.8048
267.1244
267.4201
267.7296
268.274
268.3059
268.6110
268.8814
269.1783
269.4691
269.7566
270.653
270.3508
270.6731
270.9773
271.2809
271.5934
271.8801
272.1944
272.4805
272.7772
273.677
273.3409
273.6408
273.9224
274.2287
274.5243
274.8255
275.1377
275.4302
275.7519
276.460
276.3518
276.6445
276.9281
277.2286
277.4936
277.7950
278.801
278.3770
278.6786
278.9701
279.2854
279.5737
279.8876
280.1858
280.4888
280.7839
281.609
281.3620
281.6286
281.9249
282.2098
282.5041
282.8013
283.900
283.4060
283.6938
284.61
284.3023
284.6046
284.8964
285.1777
285.4745
285.7402
286.375
286.3191
286.6205
286.9197
287.2195
287.5269
287.8176
288.1360
288.4277
288.7393
289.250
289.3173
289.6090
289.8912
290.1885
290.4677
290.7747
291.679
291.3872
291.6883
291.9925
292.2886
292.5713
292.8636
293.1293
293.4159
293.6714
293.9487
294.2132
294.4884
294.7629
295.324
295.3129
295.5751
295.8591
296.1148
296.3870
296.6340
296.8904
297.1341
297.3755
297.6170
297.8523
298.1058
298.3384
298.5982
298.8330
299.817
299.3130
299.5478
299.7662
299.9785
300.1874
300.3791
300.5874
300.7764
300.9874
301.1748
301.3882
301.5784
301.7764
301.9640
302.1468
302.3185
302.4749
302.6383
302.7742
302.9309
303.678
303.2268
303.3650
303.5223
303.6624
303.8032
303.9399
304.688
304.1925
304.2929
304.4043
304.4886
304.5984
304.6849
304.7890
304.8782
304.9839
305.771
305.1679
305.2570
305.3349
305.4121
305.4684
305.5366
305.5740
305.6365
305.6806
305.7441
305.7922
305.8544
305.9070
305.9561
306.79
306.460
306.869
306.1045
306.1394
306.1439
306.1724
306.1839
306.2126
306.2311
306.2622
306.2866
306.3070
306.3316
306.3412
306.3601
306.3518
306.3624
306.3432
306.3469
306.3404
306.3478
306.3446
306.3522
306.3585
306.3565
306.3630
306.3534
306.3557
306.3297
306.3259
306.2908
306.2765
306.2546
306.2455
306.2313
306.2225
306.2147
306.1980
306.1951
306.1720
306.1661
306.1287
306.1125
306.709
306.478
306.180
305.9974
305.9783
305.9599
305.9501
305.9271
305.9194
305.8897
305.8811
305.8440
305.8240
305.7813
305.7541
305.7233
305.6985
305.6787
305.6526
305.6415
305.6152
305.6112
305.5817
305.5698
305.5308
305.5086
305.4720
305.4397
305.4070
305.3748
305.3568
305.3275
305.3204
305.2904
305.2842
305.2564
305.2454
305.2112
305.1835
305.1499
305.1131
305.827
305.483
305.320
304.9971
304.9926
304.9656
304.9581
304.9348
304.9232
304.8944
304.8654
304.8371
304.7971
304.7712
304.7336
304.7236
304.6927
304.6910
304.6672
304.6585
304.6448
304.6333
304.6091
304.5756
304.5527
304.5102
304.4915
304.4571
304.4467
304.4187
304.4195
304.4076
304.3986
304.3862
304.3734
304.3602
304.3274
304.3108
304.2683
304.2529
304.2221
304.2137
304.1935
304.1891
304.1821
304.1721
304.1678
304.1492
304.1420
304.1081
304.973
304.608
304.458
304.200
304.90
303.9958
303.9887
303.9845
303.9704
303.9732
303.9529
303.9520
303.9212
303.9127
303.8797
303.8630
303.8420
303.8287
303.8204
303.8063
303.8085
303.7938
303.8026
303.7844
303.7847
303.7620
303.7523
303.7313
303.7091
303.6898
303.6717
303.6716
303.6525
303.6607
303.6466
303.6539
303.6439
303.6464
303.6303
303.6138
303.5957
303.5704
303.5576
303.5317
303.5317
303.5106
303.5206
303.5096
303.5128
303.5078
303.5057
303.4929
303.4702
303.4584
303.4239
303.4136
303.3877
303.3886
303.3700
303.3774
303.3743
303.3738
303.3719
303.3630
303.3576
303.3291
303.3224
303.2878
303.2810
303.2588
303.2545
303.2415
303.2424
303.2407
303.2326
303.2361
303.2208
303.2231
303.1935
303.1874
303.1551
303.1443
303.1237
303.1151
303.1106
303.999
303.1038
303.932
303.1006
303.841
303.886
303.649
303.587
303.382
303.225
303.27
302.9861
302.9867
302.9719
302.9814
302.9676
302.9762
302.9670
302.9733
302.9593
302.9465
302.9299
302.9064
302.8961
302.8737
302.8751
302.8560
302.8699
302.8619
302.8685
302.8671
302.8652
302.8568
302.8378
302.8282
302.7974
302.7909
302.7677
302.7712
302.7593
302.7696
302.7688
302.7690
302.7709
302.7641
302.7635
302.7395
302.7350
302.7047
302.6999
302.6823
302.6797
302.6722
302.6730
302.6775
302.6728
302.6805
302.6662
302.6748
302.6525
302.6492
302.6228
302.6128
302.5985
302.5889
302.5860
302.5747
302.5809
302.5689
302.5811
302.5689
302.5730
302.5536
302.5453
302.5282
302.5079
302.4926
302.4725
302.4758
302.4596
302.4728
302.4614
302.4671
302.4619
302.4688
302.4592
302.4396
302.4271
302.4023
302.3972
302.3748
302.3787
302.3614
302.3753
302.3724
302.3766
302.3775
302.3737
302.3681
302.3456
302.3427
302.3113
302.3045
302.2863
302.2888
302.2807
302.2872
302.2900
302.2876
302.2958
302.2849
302.2913
302.2680
302.2658
302.2409
302.2350
302.2177
302.2116
302.2107
302.2076
302.2147
302.2057
302.2185
302.2069
302.2150
302.1972
302.1930
302.1767
302.1606
302.1461
302.1311
302.1351
302.1196
302.1331
302.1228
302.1336
302.1271
302.1338
302.1202
302.1070
302.976
302.736
302.636
302.402
302.476
302.339
302.493
302.465
302.509
302.528
302.546
302.516
302.300
302.267
301.9988
301.9966
301.9773
301.9807
301.9726
301.9835
301.9875
301.9866
301.9944
301.9859
301.9915
301.9704
301.9724
301.9475
301.9388
301.9235
301.9212
301.9200
301.9147
301.9227
301.9166
301.9300
301.9187
301.9300
301.9094
301.9054
301.8885
301.8737
301.8609
301.8480
301.8522
301.8392
301.8541
301.8449
301.8564
301.8529
301.8602
301.8490
301.8375
301.8277
301.8054
301.7985
301.7784
301.7873
301.7753
301.7912
301.7885
301.7955
301.7998
301.8013
301.7992
301.7801
301.7798
301.7512
301.7498
301.7303
301.7335
301.7272
301.7370
301.7440
301.7434
301.7511
301.7421
301.7502
301.7280
301.7284
301.7051
301.7001
301.6854
301.6822
301.6813
301.6765
301.6872
301.6804
301.6930
301.6813
301.6920
301.6743
301.6693
301.6550
301.6400
301.6264
301.6116
301.6172
301.6026
301.6179
301.6086
301.6177
301.6160
301.6227
301.6105
301.5927
301.5828
301.5607
301.5548
301.5307
301.5375
301.5245
301.5395
301.5415
301.5437
301.5433
301.5431
301.5453
301.5234
301.5208
301.4916
301.4894
301.4727
301.4757
301.4707
301.4752
301.4811
301.4812
301.4930
301.4813
301.4896
301.4682
301.4674
301.4459
301.4400
301.4250
301.4165
301.4188
301.4105
301.4224
301.4147
301.4289
301.4207
301.4286
301.4160
301.4103
301.3965
301.3804
301.3694
301.3520
301.3605
301.3468
301.3658
301.3614
301.3701
301.3727
301.3778
301.3712
301.3569
301.3535
301.3261
301.3231
301.3051
301.3151
301.3073
301.3207
301.3236
301.3286
301.3383
301.3367
301.3417
301.3194
301.3221
301.2960
301.2952
301.2833
301.2834
301.2798
301.2827
301.2921
301.2885
301.3029
301.2938
301.3049
301.2879
301.2884
301.2691
301.2592
301.2481
301.2380
301.2441
301.2342
301.2510
301.2433
301.2584
301.2555
301.2651
301.2556
301.2467
301.2379
301.2189
301.2131
301.1919
301.1997
301.1869
301.2052
301.2035
301.2110
301.2146
301.2168
301.2162
301.1965
301.1925
301.1637
301.1634
301.1475
301.1511
301.1438
301.1531
301.1603
301.1611
301.1717
301.1622
301.1705
301.1506
301.1541
301.1307
301.1244
301.1116
301.1085
301.1117
301.1079
301.1211
301.1152
301.1314
301.1242
301.1376
301.1241
301.1207
301.1085
301.955
301.875
301.714
301.771
301.647
301.845
301.797
301.910
301.932
301.1011
301.933
301.796
301.762
301.498
301.484
301.307
301.389
301.291
301.446
301.494
301.547
301.630
301.609
301.649
301.450
301.509
301.246
301.231
301.126
301.155
301.146
301.212
301.339
301.325
301.482
301.424
301.572
301.425
301.446
301.306
301.217
301.113
301.53
301.134
301.44
301.223
301.172
301.343
301.316
301.448
301.368
301.279
301.198
301.18
300.9981
300.9800
300.9900
300.9800
301.6
301.1
301.79
301.156
301.195
301.194
301.1
301.5
300.9762
300.9780
300.9610
300.9646
300.9595
300.9686
300.9764
300.9783
300.9901
300.9812
300.9902
300.9719
300.9768
300.9538
300.9482
300.9371
300.9350
300.9370
300.9332
300.9472
300.9414
300.9601
300.9559
300.9647
300.9514
300.9485
300.9391
300.9259
300.9178
300.9003
300.9096
300.8977
300.9194
300.9189
300.9312
300.9344
300.9433
300.9380
300.9246
300.9223
300.8984
300.8972
300.8799
300.8883
300.8798
300.8931
300.8991
300.9059
300.9139
300.9082
300.9127
300.8928
300.8963
300.8719
300.8703
300.8545
300.8565
300.8579
300.8599
300.8697
300.8660
300.8816
300.8713
300.8847
300.8689
300.8669
300.8523
300.8430
300.8360
300.8256
300.8295
300.8176
300.8366
300.8324
300.8497
300.8459
300.8556
300.8479
300.8382
300.8341
300.8118
300.8051
300.7846
300.7962
300.7848
300.8007
300.7998
300.8075
300.8157
300.8158
300.8152
300.7955
300.7957
300.7676
300.7686
300.7513
300.7538
300.7510
300.7575
300.7651
300.7642
300.7775
300.7668
300.7790
300.7602
300.7606
300.7437
300.7375
300.7248
300.7187
300.7225
300.7130
300.7302
300.7244
300.7393
300.7351
300.7468
300.7387
300.7342
300.7262
300.7081
300.7013
300.6827
300.6939
300.6845
300.7057
300.7037
300.7145
300.7219
300.7273
300.7268
300.7097
300.7099
300.6851
300.6855
300.6712
300.6787
300.6725
300.6817
300.6909
300.6935
300.7026
300.6962
300.7065
300.6859
300.6907
300.6670
300.6622
300.6513
300.6492
300.6503
300.6452
300.6575
300.6516
300.6687
300.6614
300.6730
300.6581
300.6546
300.6439
300.6285
300.6209
300.6047
300.6127
300.6015
300.6226
300.6192
300.6305
300.6332
300.6430
300.6388
300.6236
300.6210
300.5964
300.5970
300.5805
300.5889
300.5819
300.5983
300.6029
300.6073
300.6188
300.6159
300.6242
300.6044
300.6081
300.5852
300.5844
300.5715
300.5710
300.5736
300.5751
300.5864
300.5822
300.6004
300.5936
300.6091
300.5951
300.5924
300.5809
300.5717
300.5620
300.5514
300.5611
300.5512
300.5733
300.5709
300.5844
300.5852
300.5975
300.5941
300.5827
300.5805
300.5591
300.5567
300.5389
300.5518
300.5462
300.5660
300.5689
300.5745
300.5849
300.5867
300.5918
300.5720
300.5784
300.5545
300.5536
300.5409
300.5453
300.5453
300.5483
300.5596
300.5590
300.5732
300.5634
300.5776
300.5612
300.5639
300.5487
300.5398
300.5301
300.5232
300.5303
300.5209
300.5414
300.5358
300.5498
300.5496
300.5604
300.5530
300.5466
300.5412
300.5204
300.5167
300.4979
300.5082
300.4971
300.5160
300.5180
300.5238
300.5276
300.5306
300.5333
300.5116
300.5101
300.4838
300.4841
300.4673
300.4709
300.4683
300.4738
300.4833
300.4839
300.4952
300.4837
300.4949
300.4777
300.4821
300.4662
300.4573
300.4434
300.4402
300.4489
300.4410
300.4570
300.4508
300.4686
300.4680
300.4825
300.4724
300.4657
300.4588
300.4434
300.4404
300.4243
300.4339
300.4208
300.4419
300.4443
300.4548
300.4603
300.4659
300.4673
300.4513
300.4538
300.4267
300.4268
300.4140
300.4221
300.4192
300.4300
300.4399
300.4420
300.4559
300.4517
300.4642
300.4470
300.4515
300.4344
300.4323
300.4235
300.4204
300.4259
300.4240
300.4418
300.4380
300.4570
300.4550
300.4716
300.4612
300.4585
300.4521
300.4385
300.4335
300.4193
300.4307
300.4191
300.4408
300.4409
300.4531
300.4591
300.4657
300.4636
300.4494
300.4514
300.4248
300.4247
300.4091
300.4183
300.4136
300.4280
300.4342
300.4367
300.4497
300.4458
300.4561
300.4372
300.4403
300.4194
300.4196
300.4100
300.4075
300.4090
300.4059
300.4206
300.4172
300.4359
300.4286
300.4405
300.4270
300.4245
300.4141
300.4023
300.3919
300.3765
300.3876
300.3764
300.3963
300.3917
300.4033
300.4079
300.4162
300.4094
300.3944
300.3950
300.3698
300.3677
300.3501
300.3576
300.3504
300.3674
300.3736
300.3775
300.3862
300.3826
300.3931
300.3745
300.3776
300.3515
300.3510
300.3395
300.3401
300.3414
300.3407
300.3534
300.3496
300.3662
300.3570
300.3706
300.3586
300.3594
300.3475
300.3368
300.3272
300.3163
300.3280
300.3190
300.3414
300.3373
300.3528
300.3545
300.3672
300.3657
300.3533
300.3498
300.3295
300.3316
300.3130
300.3225
300.3167
300.3370
300.3454
300.3513
300.3612
300.3629
300.3694
300.3507
300.3576
300.3354
300.3326
300.3207
300.3253
300.3280
300.3321
300.3446
300.3422
300.3597
300.3550
300.3699
300.3544
300.3571
300.3479
300.3392
300.3305
300.3224
300.3307
300.3233
300.3464
300.3420
300.3556
300.3567
300.3689
300.3660
300.3574
300.3540
300.3323
300.3298
300.3130
300.3259
300.3176
300.3360
300.3415
300.3500
300.3594
300.3601
300.3648
300.3480
300.3535
300.3286
300.3283
300.3167
300.3208
300.3205
300.3268
300.3394
300.3369
300.3518
300.3467
300.3627
300.3446
300.3471
300.3341
300.3271
300.3190
300.3127
300.3197
300.3106
300.3325
300.3273
300.3420
300.3429
300.3560
300.3481
300.3414
300.3387
300.3174
300.3126
300.2952
300.3080
300.2963
300.3128
300.3161
300.3238
300.3321
300.3319
300.3326
300.3136
300.3167
300.2908
300.2900
300.2748
300.2776
300.2763
300.2835
300.2938
300.2927
300.3035
300.2963
300.3126
300.2955
300.2972
300.2795
300.2742
300.2669
300.2603
300.2678
300.2622
300.2849
300.2820
300.2992
300.2998
300.3139
300.3096
300.3046
300.3014
300.2836
300.2814
300.2644
300.2776
300.2709
300.2936
300.2957
300.3045
300.3143
300.3210
300.3256
300.3098
300.3128
300.2891
300.2926
300.2789
300.2866
300.2871
300.2984
300.3090
300.3120
300.3277
300.3223
300.3381
300.3214
300.3254
300.3096
300.3057
300.2979
300.2966
300.3038
300.2986
300.3171
300.3134
300.3331
300.3328
300.3458
300.3369
300.3324
300.3258
300.3089
300.3051
300.2886
300.2994
300.2897
300.3127
300.3149
300.3244
300.3293
300.3356
300.3385
300.3231
300.3241
300.2997
300.3011
300.2873
300.2946
300.2912
300.3038
300.3125
300.3154
300.3290
300.3224
300.3349
300.3153
300.3179
300.3013
300.2977
300.2854
300.2817
300.2856
300.2829
300.2996
300.2922
300.3093
300.3064
300.3200
300.3070
300.3012
300.2912
300.2751
300.2687
300.2528
300.2632
300.2507
300.2702
300.2691
300.2792
300.2825
300.2888
300.2871
300.2703
300.2725
300.2463
300.2439
300.2282
300.2379
300.2337
300.2471
300.2552
300.2572
300.2703
300.2668
300.2786
300.2575
300.2639
300.2451
300.2423
300.2308
300.2289
300.2341
300.2332
300.2493
300.2445
300.2619
300.2583
300.2736
300.2631
300.2585
300.2502
300.2369
300.2312
300.2185
300.2300
300.2191
300.2401
300.2397
300.2510
300.2558
300.2656
300.2652
300.2544
300.2547
300.2279
300.2297
300.2162
300.2249
300.2214
300.2379
300.2474
300.2520
300.2648
300.2634
300.2753
300.2560
300.2604
300.2397
300.2382
300.2283
300.2286
300.2316
300.2312
300.2469
300.2428
300.2601
300.2555
300.2702
300.2577
300.2580
300.2501
300.2382
300.2293
300.2169
300.2302
300.2208
300.2431
300.2412
300.2546
300.2626
300.2744
300.2708
300.2581
300.2601
300.2375
300.2402
300.2249
300.2341
300.2288
300.2465
300.2551
300.2595
300.2698
300.2698
300.2821
300.2621
300.2664
300.2428
300.2419
300.2329
300.2346
300.2365
300.2370
300.2501
300.2470
300.2662
300.2600
300.2749
300.2615
300.2627
300.2514
300.2409
300.2330
300.2217
300.2322
300.2231
300.2461
300.2410
300.2532
300.2585
300.2722
300.2692
300.2574
300.2557
300.2320
300.2315
300.2144
300.2233
300.2165
300.2315
300.2372
300.2425
300.2503
300.2464
300.2537
300.2340
300.2384
300.2123
300.2089
300.1944
300.1961
300.1988
300.2009
300.2114
300.2068
300.2233
300.2160
300.2304
300.2148
300.2146
300.2039
300.1957
300.1848
300.1732
300.1836
300.1736
300.1965
300.1944
300.2111
300.2137
300.2263
300.2221
300.2126
300.2123
300.1874
300.1845
300.1708
300.1842
300.1729
300.1893
300.1949
300.2010
300.2086
300.2077
300.2117
300.1914
300.1976
300.1747
300.1727
300.1582
300.1616
300.1623
300.1661
300.1801
300.1774
300.1917
300.1846
300.1999
300.1850
300.1862
300.1738
300.1655
300.1571
300.1473
300.1562
300.1463
300.1691
300.1681
300.1817
300.1838
300.1960
300.1917
300.1817
300.1807
300.1605
300.1591
300.1436
300.1544
300.1476
300.1680
300.1751
300.1814
300.1915
300.1930
300.1995
300.1816
300.1888
300.1656
300.1676
300.1562
300.1614
300.1620
300.1674
300.1818
300.1831
300.1994
300.1925
300.2116
300.2001
300.2059
300.1930
300.1852
300.1798
300.1748
300.1850
300.1748
300.1961
300.1933
300.2106
300.2114
300.2239
300.2174
300.2087
300.2053
300.1841
300.1827
300.1641
300.1755
300.1664
300.1853
300.1908
300.1970
300.2047
300.2074
300.2129
300.1948
300.1976
300.1719
300.1724
300.1607
300.1663
300.1661
300.1705
300.1834
300.1847
300.2007
300.1935
300.2098
300.1944
300.1983
300.1864
300.1773
300.1674
300.1609
300.1712
300.1627
300.1810
300.1763
300.1915
300.1915
300.2056
300.1982
300.1904
300.1875
300.1679
300.1661
300.1488
300.1628
300.1518
300.1724
300.1793
300.1886
300.1957
300.1980
300.2051
300.1890
300.1948
300.1705
300.1720
300.1585
300.1679
300.1682
300.1754
300.1860
300.1852
300.2010
300.1947
300.2116
300.1949
300.1966
300.1806
300.1756
300.1663
300.1574
300.1661
300.1590
300.1784
300.1737
300.1909
300.1883
300.1999
300.1931
300.1858
300.1806
300.1607
300.1580
300.1411
300.1513
300.1408
300.1607
300.1637
300.1717
300.1791
300.1805
300.1824
300.1651
300.1682
300.1409
300.1399
300.1264
300.1319
300.1285
300.1361
300.1441
300.1411
300.1560
300.1489
300.1605
300.1413
300.1439
300.1255
300.1190
300.1081
300.984
300.1052
300.956
300.1143
300.1092
300.1257
300.1209
300.1324
300.1246
300.1203
300.1126
300.929
300.900
300.741
300.858
300.758
300.943
300.982
300.1080
300.1156
300.1205
300.1234
300.1068
300.1120
300.881
300.901
300.770
300.825
300.814
300.909
300.1039
300.1044
300.1173
300.1101
300.1255
300.1105
300.1167
300.1007
300.953
300.859
300.826
300.915
300.854
300.1044
300.1011
300.1206
300.1196
300.1337
300.1288
300.1244
300.1197
300.1028
300.1014
300.863
300.1005
300.935
300.1172
300.1205
300.1317
300.1390
300.1452
300.1511
300.1360
300.1396
300.1138
300.1166
300.1062
300.1137
300.1127
300.1227
300.1335
300.1362
300.1507
300.1426
300.1574
300.1429
300.1472
300.1298
300.1264
300.1165
300.1132
300.1202
300.1153
300.1337
300.1286
300.1454
300.1452
300.1614
300.1499
300.1440
300.1419
300.1262
300.1202
300.1008
300.1121
300.1019
300.1235
300.1243
300.1334
300.1384
300.1435
300.1441
300.1263
300.1275
300.996
300.1009
300.866
300.940
300.895
300.977
300.1068
300.1092
300.1225
300.1121
300.1246
300.1061
300.1113
300.935
300.876
300.770
300.697
300.768
300.726
300.899
300.851
300.1031
300.1020
300.1156
300.1084
300.1045
300.971
300.814
300.788
300.618
300.736
300.633
300.842
300.852
300.953
300.1036
300.1065
300.1085
300.932
300.966
300.687
300.705
300.576
300.677
300.681
300.794
300.873
300.899
300.1075
300.1034
300.1163
300.995
300.1064
300.911
300.866
300.780
300.731
300.812
300.790
300.984
300.945
300.1128
300.1106
300.1265
300.1185
300.1168
300.1103
300.945
300.901
300.744
300.867
300.755
300.961
300.973
300.1081
300.1127
300.1180
300.1184
300.1018
300.1031
300.764
300.775
300.627
300.675
300.662
300.784
300.870
300.886
300.1002
300.940
300.1094
300.920
300.941
300.734
300.698
300.613
300.573
300.605
300.559
300.725
300.669
300.838
300.787
300.915
300.829
300.773
300.680
300.526
300.468
300.294
300.425
300.334
300.530
300.544
300.659
300.722
300.790
300.808
300.636
300.677
300.447
300.475
300.327
300.387
300.361
300.485
300.609
300.649
300.768
300.709
300.852
300.703
300.739
300.565
300.552
300.469
300.445
300.512
300.459
300.628
300.595
300.783
300.741
300.877
300.778
300.733
300.662
300.523
300.469
300.299
300.426
300.353
300.591
300.611
300.740
300.819
300.898
300.935
300.780
300.797
300.574
300.635
300.503
300.584
300.558
300.681
300.791
300.852
300.982
300.915
300.1052
300.884
300.932
300.767
300.731
300.636
300.614
300.667
300.634
300.800
300.745
300.912
300.873
300.1016
300.932
300.880
300.802
300.643
300.597
300.456
300.567
300.457
300.671
300.692
300.821
300.870
300.929
300.935
300.790
300.810
300.564
300.586
300.435
300.521
300.466
300.583
300.673
300.711
300.834
300.771
300.882
300.697
300.757
300.560
300.512
300.392
300.380
300.420
300.376
300.560
300.507
300.674
300.636
300.767
300.671
300.657
300.570
300.426
300.391
300.245
300.363
300.259
300.484
300.495
300.605
300.680
300.753
300.741
300.605
300.651
300.392
300.401
300.242
300.332
300.292
300.420
300.498
300.510
300.636
300.585
300.696
300.488
300.520
300.315
300.273
300.187
300.160
300.188
300.161
300.328
300.288
300.463
300.428
300.596
300.493
300.487
300.428
300.288
300.241
300.122
300.246
300.140
300.378
300.379
300.483
300.592
300.690
300.674
300.545
300.586
300.346
300.388
300.244
300.328
300.295
300.442
300.534
300.555
300.682
300.639
300.774
300.586
300.650
300.452
300.444
300.363
300.361
300.399
300.390
300.563
300.532
300.740
300.713
300.845
300.748
300.765
300.701
300.560
300.518
300.385
300.522
300.457
300.689
300.677
300.814
300.886
300.985
300.992
300.863
300.888
300.652
300.686
300.527
300.605
300.583
300.729
300.797
300.833
300.959
300.890
300.1000
300.812
300.887
300.666
300.634
300.524
300.511
300.552
300.529
300.666
300.611
300.807
300.765
300.900
300.789
300.771
300.688
300.558
300.485
300.307
300.418
300.330
300.567
300.535
300.617
300.655
300.737
300.730
300.571
300.547
300.280
300.310
300.144
300.215
300.145
300.282
300.357
300.398
300.515
300.446
300.553
300.386
300.474
300.282
300.246
300.147
300.133
300.205
300.200
300.361
300.324
300.502
300.460
300.619
300.526
300.522
300.439
300.323
300.296
300.161
300.284
300.187
300.429
300.424
300.566
300.616
300.693
300.705
300.599
300.619
300.380
300.404
300.275
300.366
300.354
300.509
300.610
300.661
300.810
300.785
300.913
300.751
300.851
300.651
300.653
300.581
300.593
300.670
300.696
300.883
300.851
300.1059
300.1028
300.1193
300.1109
300.1107
300.1021
300.921
300.888
300.772
300.898
300.800
300.1022
300.1015
300.1160
300.1212
300.1281
300.1276
300.1147
300.1165
300.919
300.937
300.771
300.868
300.825
300.999
300.1063
300.1099
300.1212
300.1170
300.1293
300.1115
300.1160
300.949
300.965
300.872
300.855
300.905
300.887
300.1024
300.980
300.1164
300.1090
300.1220
300.1113
300.1121
300.1021
300.876
300.789
300.646
300.760
300.659
300.860
300.835
300.964
300.1039
300.1135
300.1114
300.1000
300.1013
300.787
300.823
300.646
300.729
300.706
300.865
300.935
300.968
300.1062
300.1033
300.1182
300.1026
300.1056
300.825
300.822
300.728
300.741
300.787
300.770
300.903
300.839
300.1019
300.953
300.1095
300.959
300.943
300.856
300.724
300.636
300.487
300.615
300.510
300.734
300.704
300.820
300.867
300.984
300.966
300.827
300.822
300.599
300.634
300.460
300.552
300.489
300.659
300.754
300.809
300.898
300.856
300.973
300.804
300.869
300.658
300.617
300.518
300.519
300.555
300.554
300.666
300.618
300.804
300.735
300.869
300.731
300.721
300.639
300.512
300.434
300.308
300.412
300.291
300.509
300.495
300.627
300.650
300.745
300.721
300.604
300.591
300.348
300.372
300.229
300.342
300.258
300.398
300.481
300.541
300.652
300.626
300.721
300.535
300.587
300.392
300.359
300.243
300.236
300.268
300.292
300.442
300.394
300.551
300.483
300.634
300.517
300.520
300.416
300.300
300.236
300.106
300.204
300.97
300.315
300.288
300.430
300.454
300.539
300.506
300.398
300.391
300.150
300.154
299.9960
300.46
299.9983
300.156
300.200
300.233
300.319
300.267
300.346
300.144
300.202
299.9964
299.9939
299.9848
299.9848
299.9866
299.9850
299.9990
299.9954
300.130
300.61
300.218
300.101
300.97
299.9988
299.9889
299.9816
299.9689
299.9826
299.9736
299.9933
299.9908
300.68
300.104
300.227
300.220
300.92
300.89
299.9877
299.9897
299.9722
299.9834
299.9800
299.9966
300.37
300.90
300.205
300.182
300.293
300.114
300.168
299.9950
299.9950
299.9862
299.9888
299.9924
299.9938
300.105
300.79
300.270
300.225
300.402
300.300
300.321
300.227
300.132
300.78
299.9992
300.137
300.39
300.264
300.249
300.405
300.477
300.568
300.550
300.444
300.444
300.219
300.234
300.68
300.155
300.108
300.275
300.367
300.404
300.502
300.474
300.603
300.430
300.491
300.283
300.261
300.166
300.199
300.248
300.237
300.390
300.372
300.543
300.486
300.635
300.522
300.552
300.463
300.347
300.267
300.134
300.247
300.147
300.350
300.297
300.436
300.464
300.533
300.495
300.382
300.357
300.109
300.115
299.9941
300.21
299.9961
300.119
300.182
300.238
300.327
300.282
300.371
300.197
300.273
300.64
300.57
299.9938
299.9954
300.18
300.51
300.192
300.152
300.346
300.296
300.471
300.352
300.372
300.281
300.198
300.136
300.14
300.125
300.28
300.274
300.250
300.354
300.385
300.505
300.503
300.397
300.382
300.147
300.171
300.24
300.126
300.84
300.266
300.363
300.456
300.576
300.547
300.670
300.523
300.615
300.402
300.439
300.353
300.381
300.451
300.496
300.651
300.617
300.810
300.768
300.943
300.853
300.870
300.774
300.685
300.621
300.515
300.633
300.546
300.773
300.744
300.903
300.946
300.1051
300.1019
300.932
300.933
300.698
300.705
300.539
300.663
300.598
300.768
300.839
300.879
300.970
300.958
300.1082
300.924
300.965
300.741
300.767
300.651
300.674
300.701
300.704
300.840
300.813
300.983
300.899
300.1037
300.915
300.908
300.793
300.683
300.606
300.509
300.612
300.505
300.726
300.670
300.798
300.842
300.959
300.920
300.806
300.804
300.581
300.580
300.411
300.517
300.453
300.645
300.711
300.763
300.854
300.838
300.951
300.788
300.840
300.602
300.621
300.519
300.544
300.578
300.592
300.717
300.711
300.894
300.807
300.937
300.810
300.835
300.722
300.625
300.522
300.409
300.534
300.459
300.667
300.631
300.790
300.822
300.950
300.935
300.832
300.823
300.620
300.648
300.467
300.570
300.519
300.718
300.796
300.874
300.959
300.944
300.1062
300.902
300.953
300.734
300.756
300.653
300.661
300.707
300.726
300.835
300.820
300.1016
300.928
300.1074
300.947
300.986
300.881
300.808
300.730
300.611
300.736
300.664
300.887
300.863
300.1029
300.1054
300.1181
300.1161
300.1076
300.1072
300.862
300.879
300.718
300.830
300.756
300.938
300.989
300.1070
300.1147
300.1131
300.1210
300.1039
300.1111
300.871
300.867
300.742
300.765
300.790
300.829
300.957
300.922
300.1093
300.1023
300.1182
300.1042
300.1046
300.916
300.820
300.745
300.643
300.720
300.610
300.815
300.771
300.896
300.908
300.994
300.940
300.838
300.811
300.571
300.539
300.357
300.468
300.389
300.521
300.550
300.590
300.667
300.625
300.674
300.490
300.525
300.260
300.245
300.126
300.129
300.130
300.166
300.290
300.260
300.424
300.343
300.489
300.380
300.412
300.296
300.190
300.121
300.44
300.154
300.70
300.284
300.257
300.447
300.488
300.596
300.556
300.509
300.497
300.286
300.299
300.135
300.247
300.202
300.397
300.466
300.527
300.627
300.620
300.709
300.542
300.620
300.375
300.400
300.295
300.335
300.353
300.408
300.536
300.545
300.745
300.673
300.813
300.709
300.752
300.649
300.570
300.519
300.437
300.564
300.496
300.704
300.660
300.838
300.880
300.1000
300.974
300.900
300.880
300.685
300.704
300.542
300.644
300.586
300.789
300.852
300.922
300.1009
300.1011
300.1091
300.945
300.1012
300.747
300.760
300.666
300.704
300.708
300.747
300.848
300.822
300.982
300.895
300.1045
300.901
300.920
300.761
300.689
300.600
300.489
300.569
300.493
300.693
300.599
300.738
300.748
300.837
300.782
300.675
300.624
300.399
300.393
300.210
300.292
300.219
300.410
300.450
300.520
300.627
300.619
300.686
300.535
300.597
300.345
300.365
300.265
300.307
300.333
300.406
300.527
300.483
300.662
300.634
300.816
300.671
300.701
300.595
300.549
300.493
300.400
300.482
300.429
300.655
300.611
300.757
300.771
300.905
300.875
300.798
300.780
300.574
300.590
300.428
300.528
300.463
300.670
300.731
300.836
300.943
300.956
300.1031
300.879
300.957
300.737
300.771
300.650
300.685
300.741
300.833
300.943
300.944
300.1131
300.1064
300.1228
300.1100
300.1126
300.1010
300.958
300.878
300.791
300.878
300.798
300.992
300.958
300.1132
300.1132
300.1219
300.1190
300.1138
300.1105
300.895
300.874
300.698
300.827
300.771
300.962
300.990
300.1078
300.1150
300.1159
300.1232
300.1055
300.1107
300.877
300.903
300.783
300.811
300.818
300.889
300.1018
300.985
300.1136
300.1064
300.1211
300.1079
300.1107
300.949
300.869
300.785
300.712
300.798
300.720
300.918
300.873
300.1051
300.1065
300.1185
300.1137
300.1080
300.1067
300.875
300.877
300.727
300.869
300.801
300.1020
300.1103
300.1194
300.1285
300.1330
300.1419
300.1265
300.1312
300.1071
300.1113
300.1015
300.1080
300.1091
300.1165
300.1294
300.1299
300.1465
300.1398
300.1559
300.1424
300.1471
300.1334
300.1286
300.1196
300.1142
300.1228
300.1155
300.1354
300.1304
300.1484
300.1501
300.1636
300.1585
300.1528
300.1504
300.1332
300.1333
300.1185
300.1313
300.1219
300.1445
300.1487
300.1599
300.1677
300.1703
300.1765
300.1614
300.1665
300.1412
300.1434
300.1314
300.1372
300.1352
300.1425
300.1511
300.1493
300.1640
300.1548
300.1676
300.1490
300.1513
300.1342
300.1264
300.1153
300.1070
300.1136
300.1050
300.1221
300.1136
300.1291
300.1277
300.1390
300.1296
300.1218
300.1157
300.953
300.923
300.756
300.838
300.699
300.890
300.907
300.966
300.1001
300.1018
300.1044
300.844
300.873
300.632
300.641
300.491
300.528
300.529
300.605
300.700
300.704
300.862
300.781
300.915
300.752
300.798
300.641
300.576
300.488
300.419
300.491
300.437
300.643
300.597
300.769
300.735
300.882
300.857
300.824
300.774
300.596
300.578
300.456
300.613
300.540
300.742
300.809
300.942
300.1036
300.1072
300.1134
300.1004
300.1080
300.870
300.932
300.799
300.871
300.907
300.1036
300.1174
300.1199
300.1362
300.1305
300.1481
300.1358
300.1448
300.1301
300.1278
300.1206
300.1192
300.1305
300.1246
300.1448
300.1435
300.1651
300.1637
300.1798
300.1749
300.1734
300.1720
300.1549
300.1513
300.1350
300.1479
300.1413
300.1640
300.1657
300.1755
300.1825
300.1893
300.1932
300.1768
300.1805
300.1556
300.1564
300.1436
300.1512
300.1472
300.1554
300.1675
300.1662
300.1773
300.1687
300.1820
300.1645
300.1680
300.1494
300.1423
300.1307
300.1260
300.1318
300.1235
300.1386
300.1302
300.1450
300.1411
300.1517
300.1413
300.1345
300.1248
300.1044
300.972
300.783
300.862
300.726
300.901
300.866
300.913
300.947
300.966
300.955
300.762
300.764
300.476
300.469
300.322
300.352
300.286
300.370
300.437
300.426
300.541
300.467
300.575
300.390
300.409
300.212
300.149
300.28
299.9966
300.6
299.9914
300.62
299.9982
300.126
300.76
300.181
300.82
300.10
299.9914
299.9722
299.9693
299.9524
299.9617
299.9494
299.9699
299.9739
299.9837
299.9883
299.9917
299.9932
299.9801
299.9854
299.9591
299.9592
299.9459
299.9553
299.9544
299.9655
299.9744
299.9777
299.9929
299.9869
300.22
299.9878
299.9935
299.9815
299.9786
299.9705
299.9680
299.9762
299.9725
299.9937
299.9887
300.68
300.55
300.208
300.151
300.114
300.57
299.9892
299.9880
299.9723
299.9869
299.9776
300.0
300.49
300.188
300.262
300.314
300.377
300.248
300.303
300.73
300.118
300.1
300.92
300.94
300.223
300.331
300.367
300.530
300.469
300.635
300.519
300.593
300.419
300.397
300.343
300.317
300.375
300.333
300.544
300.501
300.673
300.653
300.793
300.708
300.682
300.618
300.428
300.391
300.245
300.363
300.242
300.452
300.453
300.546
300.608
300.663
300.673
300.503
300.547
300.300
300.308
300.181
300.250
300.212
300.318
300.410
300.407
300.525
300.443
300.580
300.403
300.443
300.243
300.170
300.70
300.42
300.91
300.30
300.208
300.163
300.346
300.314
300.420
300.341
300.320
300.277
300.105
300.62
299.9896
300.2
299.9927
300.158
300.156
300.252
300.320
300.388
300.423
300.288
300.315
300.54
300.104
299.9987
300.34
300.32
300.175
300.263
300.270
300.414
300.347
300.470
300.311
300.370
300.203
300.155
300.80
300.45
300.105
300.65
300.260
300.206
300.402
300.405
300.548
300.484
300.476
300.419
300.266
300.267
300.140
300.264
300.181
300.437
300.478
300.617
300.714
300.773
300.808
300.705
300.753
300.499
300.544
300.449
300.521
300.492
300.618
300.718
300.745
300.898
300.829
300.967
300.800
300.870
300.700
300.655
300.563
300.518
300.591
300.581
300.770
300.703
300.874
300.851
300.999
300.919
300.909
300.856
300.693
300.660
300.503
300.617
300.513
300.733
300.754
300.861
300.917
300.957
300.971
300.835
300.878
300.619
300.635
300.487
300.542
300.528
300.664
300.754
300.764
300.921
300.862
300.971
300.801
300.862
300.661
300.633
300.533
300.475
300.521
300.455
300.627
300.560
300.732
300.659
300.788
300.704
300.671
300.596
300.410
300.358
300.187
300.279
300.163
300.380
300.354
300.434
300.477
300.518
300.525
300.351
300.356
300.89
300.97
299.9912
299.9980
299.9961
300.78
300.159
300.170
300.291
300.211
300.353
300.196
300.241
300.39
300.20
299.9953
299.9931
299.9971
299.9915
300.108
300.85
300.276
300.244
300.382
300.319
300.326
300.268
300.111
300.71
299.9925
300.58
299.9966
300.178
300.191
300.316
300.373
300.446
300.466
300.335
300.368
300.113
300.154
300.23
300.88
300.73
300.201
300.312
300.345
300.477
300.411
300.554
300.403
300.480
300.313
300.281
300.181
300.182
300.256
300.225
300.393
300.345
300.535
300.513
300.651
300.561
300.522
300.472
300.329
300.282
300.119
300.230
300.136
300.359
300.370
300.465
300.518
300.575
300.595
300.448
300.461
300.204
300.233
300.68
300.125
300.97
300.193
300.271
300.318
300.440
300.362
300.484
300.315
300.378
300.190
300.157
300.45
300.7
300.72
300.53
300.205
300.132
300.309
300.253
300.385
300.304
300.267
300.183
300.43
300.10
299.9853
299.9964
299.9859
300.73
300.99
300.236
300.295
300.335
300.352
300.230
300.256
299.9988
300.23
299.9891
299.9982
299.9963
300.75
300.169
300.216
300.370
300.311
300.459
300.313
300.367
300.206
300.208
300.122
300.91
300.165
300.149
300.337
300.308
300.504
300.462
300.613
300.549
300.535
300.471
300.333
300.303
300.178
300.320
300.224
300.454
300.476
300.637
300.701
300.791
300.830
300.716
300.776
300.551
300.583
300.475
300.588
300.599
300.751
300.857
300.904
300.1037
300.1005
300.1163
300.1007
300.1074
300.895
300.882
300.817
300.821
300.855
300.824
300.1004
300.967
300.1151
300.1101
300.1248
300.1170
300.1163
300.1105
300.937
300.877
300.733
300.862
300.770
300.960
300.926
300.1051
300.1127
300.1194
300.1159
300.1020
300.1057
300.811
300.827
300.673
300.741
300.688
300.825
300.901
300.892
300.993
300.934
300.1054
300.870
300.907
300.686
300.646
300.558
300.539
300.573
300.523
300.677
300.642
300.837
300.783
300.898
300.792
300.790
300.710
300.549
300.493
300.343
300.471
300.353
300.568
300.555
300.670
300.725
300.811
300.809
300.686
300.712
300.481
300.516
300.363
300.454
300.413
300.564
300.668
300.713
300.833
300.767
300.899
300.749
300.818
300.609
300.559
300.475
300.473
300.522
300.490
300.623
300.566
300.765
300.722
300.843
300.760
300.741
300.668
300.554
300.494
300.329
300.443
300.353
300.581
300.579
300.690
300.749
300.819
300.831
300.711
300.721
300.459
300.476
300.340
300.418
300.361
300.489
300.557
300.599
300.709
300.620
300.708
300.539
300.606
300.395
300.367
300.255
300.216
300.266
300.255
300.405
300.339
300.525
300.483
300.631
300.543
300.541
300.449
300.328
300.316
300.177
300.289
300.196
300.453
300.457
300.590
300.652
300.731
300.762
300.657
300.668
300.418
300.448
300.301
300.367
300.332
300.510
300.568
300.587
300.709
300.668
300.765
300.576
300.629
300.419
300.385
300.269
300.234
300.266
300.234
300.364
300.288
300.470
300.412
300.520
300.408
300.387
300.278
300.138
300.68
299.9914
300.32
299.9919
300.133
300.103
300.211
300.267
300.322
300.313
300.177
300.194
299.9939
299.9955
299.9791
299.9877
299.9844
300.2
300.87
300.148
300.278
300.239
300.382
300.238
300.312
300.124
300.147
300.90
300.92
300.152
300.167
300.347
300.318
300.524
300.503
300.661
300.595
300.614
300.551
300.434
300.390
300.293
300.437
300.344
300.584
300.575
300.719
300.820
300.906
300.912
300.817
300.845
300.617
300.664
300.531
300.611
300.576
300.751
300.828
300.874
300.993
300.951
300.1070
300.916
300.986
300.789
300.793
300.711
300.708
300.772
300.772
300.921
300.867
300.1068
300.1007
300.1145
300.1047
300.1027
300.924
300.804
300.730
300.567
300.679
300.589
300.809
300.768
300.879
300.913
300.1011
300.988
300.846
300.832
300.578
300.604
300.431
300.506
300.431
300.557
300.642
300.679
300.756
300.672
300.777
300.615
300.681
300.459
300.432
300.328
300.312
300.361
300.361
300.491
300.439
300.633
300.567
300.678
300.573
300.570
300.464
300.334
300.266
300.104
300.190
300.100
300.309
300.267
300.387
300.397
300.460
300.452
300.310
300.281
300.26
300.47
299.9876
299.9949
299.9912
300.51
300.106
300.150
300.259
300.208
300.301
300.119
300.173
299.9963
299.9954
299.9849
299.9811
299.9844
299.9859
300.4
299.9938
300.104
300.41
300.203
300.113
300.75
299.9981
299.9868
299.9830
299.9687
299.9796
299.9709
299.9938
299.9937
300.101
300.151
300.240
300.249
300.177
300.207
299.9985
300.18
299.9873
299.9989
299.9978
300.164
300.248
300.318
300.459
300.434
300.576
300.425
300.480
300.289
300.313
300.228
300.218
300.253
300.268
300.420
300.370
300.552
300.489
300.626
300.511
300.529
300.434
300.306
300.238
300.85
300.193
300.108
300.296
300.234
300.363
300.410
300.494
300.462
300.343
300.350
300.104
300.131
299.9948
300.14
299.9968
300.134
300.203
300.221
300.321
300.252
300.328
300.154
300.187
299.9948
299.9954
299.9828
299.9796
299.9845
299.9840
299.9978
299.9922
300.121
300.58
300.177
300.69
300.92
300.23
299.9911
299.9828
299.9682
299.9808
299.9742
299.9963
299.9921
300.68
300.136
300.239
300.219
300.127
300.166
299.9946
299.9983
299.9842
299.9933
299.9899
300.81
300.170
300.217
300.342
300.321
300.416
300.252
300.344
300.141
300.114
300.42
300.61
300.71
300.83
300.251
300.199
300.386
300.357
300.495
300.395
300.405
300.326
300.227
300.187
300.60
300.169
300.90
300.339
300.325
300.483
300.533
300.630
300.623
300.529
300.538
300.285
300.308
300.163
300.242
300.179
300.340
300.413
300.463
300.578
300.530
300.607
300.433
300.517
300.296
300.262
300.154
300.145
300.184
300.188
300.321
300.252
300.432
300.379
300.516
300.397
300.394
300.289
300.177
300.126
299.9960
299.9940
299.9685
299.9758
299.9585
299.9545
299.9399
299.9261
299.9015
299.8661
299.8392
299.7864
299.7591
299.7144
299.6896
299.6514
299.6324
299.6040
299.5706
299.5458
299.5019
299.4696
299.4071
299.3657
299.2976
299.2453
299.1835
299.1269
299.718
299.98
298.9641
298.8947
298.8445
298.7691
298.7090
298.6246
298.5437
298.4536
298.3480
298.2552
298.1456
298.592
297.9483
297.8638
297.7582
297.6544
297.5477
297.4249
297.3066
297.1642
297.400
296.8815
296.7394
296.5865
296.4381
296.2911
296.1336
295.9926
295.8257
295.6760
295.5053
295.3447
295.1633
294.9745
294.7885
294.5759
294.3873
294.1781
293.9846
293.7774
293.5850
293.3854
293.1741
292.9736
292.7454
292.5365
292.3016
292.755
291.8334
291.5786
291.3368
291.786
290.8456
290.5903
290.3567
290.1094
289.8531
289.6063
289.3371
289.876
288.8067
288.5382
288.2579
287.9677
287.6881
287.3931
287.1222
286.8333
286.5666
286.2902
286.20
285.7280
285.4288
285.1502
284.8489
284.5524
284.2492
283.9234
283.6260
283.3130
283.173
282.7117
282.4086
282.1192
281.8053
281.5132
281.2054
280.9016
280.5903
280.2617
279.9550
279.6150
279.2951
278.9700
278.6424
278.3346
278.43
277.7096
277.3936
277.758
276.7706
276.4399
276.1323
275.7990
275.4720
275.1465
274.7933
274.4745
274.1402
273.8143
273.4947
273.1578
272.8578
272.5320
272.2145
271.8990
271.5623
271.2512
270.9117
270.5827
270.2508
269.8955
269.5736
269.2361
268.9076
268.5870
268.2491
267.9483
267.6208
267.2979
266.9872
266.6518
266.3396
266.39
265.6652
265.3421
264.9849
264.6575
264.3242
263.9873
263.6722
263.3330
263.244
262.7099
262.3760
262.671
261.7426
261.4211
261.1023
260.7555
260.4349
260.959
259.7467
259.4231
259.856
258.7655
258.4459
258.1076
257.8116
257.4906
257.1677
256.8633
256.5329
256.2214
255.8941
255.5489
255.2359
254.8940
254.5537
254.2298
253.8898
253.5732
253.2555
252.9213
252.6280
252.3066
251.9832
251.6805
251.3534
251.435
250.7244
250.3786
250.630
249.7273
249.3807
249.649
248.7311
248.4041
248.930
247.7569
247.4596
247.1504
246.8183
246.5177
246.2057
245.8785
245.5716
245.2367
244.9079
244.5940
244.2410
243.9165
243.5922
243.2564
242.9488
242.6301
242.2994
242.103
241.6927
241.3688
241.723
240.7532
240.4356
240.1256
239.7830
239.4604
239.1411
238.7872
238.4686
238.1445
237.8054
237.4945
237.1772
236.8451
236.5578
236.2424
235.9143
235.6171
235.3014
234.9780
234.6719
234.3352
233.9988
233.6875
233.3402
233.31
232.6818
232.3431
232.178
231.7098
231.3732
231.661
230.7661
230.4340
230.1231
229.8227
229.4928
229.1796
228.8582
228.5105
228.1901
227.8713
227.5145
227.1900
226.8655
226.5242
226.2065
225.8974
225.5603
225.2626
224.9634
224.6318
224.3236
224.247
223.6955
223.3843
223.734
222.7286
222.3987
222.856
221.7338
221.3984
221.823
220.7478
220.4210
220.1193
219.7927
219.4688
219.1802
218.8590
218.5339
218.2418
217.9284
217.5976
217.2959
216.9724
216.6265
216.3143
215.9894
215.6307
215.3131
214.9929
214.6543
214.3366
214.367
213.7091
213.3939
213.1066
212.7880
212.4653
212.1750
211.8684
211.5388
211.2412
210.9219
210.5751
210.2581
209.9485
209.5963
209.2643
208.9513
208.6194
208.2878
207.9888
207.6719
207.3380
207.583
206.7608
206.4294
206.1242
205.8327
205.5113
205.1943
204.8991
204.5710
204.2232
203.9166
203.5992
203.2418
202.9197
202.6056
202.2723
201.9479
201.6527
201.3380
200.9989
200.7153
200.4241
200.943
199.7821
199.4942
199.1860
198.8606
198.5633
198.2441
197.8984
197.5787
197.2770
196.9306
196.5794
196.2770
195.9597
195.6227
195.3063
195.68
194.6841
194.3617
194.888
193.7906
193.4587
193.1548
192.8671
192.5561
192.2341
191.9388
191.6217
191.2735
190.9480
190.6485
190.3105
189.9514
189.6421
189.3295
188.9930
188.6694
188.3730
188.617
187.7217
187.4271
187.1488
186.8279
186.4999
186.2165
185.9226
185.5933
185.2738
184.9778
184.6540
184.3032
183.9827
183.6817
183.3391
182.9786
182.6698
182.3495
182.61
181.6761
181.3764
181.686
180.7296
180.4122
180.1315
179.8216
179.4828
179.1711
178.8805
178.5731
178.2361
177.9231
177.6127
177.2738
176.9184
176.6027
176.2922
175.9346
175.5713
175.2621
174.9416
174.5968
174.2626
173.9525
173.6442
173.3095
172.9783
172.7028
172.4105
172.720
171.7472
171.4634
171.1634
170.8282
170.5018
170.2026
169.8874
169.5448
169.2017
168.8985
168.5883
168.2267
167.8670
167.5634
167.2502
166.9167
166.5857
166.2780
165.9789
165.6610
165.3259
165.412
164.7671
164.4558
164.1246
163.8271
163.5532
163.2602
162.9257
162.6113
162.3220
162.57
161.6600
161.3244
161.297
160.7281
160.3726
160.182
159.7164
159.4125
159.908
158.7485
158.4371
158.1511
157.8501
157.5192
157.2094
156.9494
156.6709
156.3465
156.267
155.7468
155.4684
155.1780
154.8447
154.5396
154.2553
153.9477
153.6148
153.2765
152.9793
152.6838
152.3507
151.9828
151.6586
151.3768
151.692
150.7355
150.4103
150.1092
149.8231
149.5220
149.1903
148.8876
148.6306
148.3532
148.328
147.7115
147.4245
147.1629
146.8771
146.5492
146.2348
145.9416
145.6488
145.3304
144.9832
144.6624
144.3730
144.733
143.7325
143.3620
143.389
142.7592
142.4418
142.1136
141.7749
141.4714
141.1874
140.8905
140.5758
140.2459
139.9732
139.7102
139.4215
139.839
138.7666
138.4853
138.2213
137.9334
137.6102
137.2934
136.9971
136.7081
136.3922
136.563
135.7133
135.4138
135.1224
134.8105
134.4511
134.916
133.7848
133.5125
133.1989
132.8742
132.5295
132.2286
131.9351
131.6451
131.3461
131.155
130.7114
130.4579
130.1936
129.9026
129.5632
129.2553
128.9855
128.7283
128.4373
128.1271
127.7935
127.5043
127.2197
126.9175
126.6065
126.2629
125.9418
125.6509
125.3580
125.470
124.6949
124.3302
124.185
123.7481
123.4386
123.1260
122.7814
122.4722
122.1866
121.9043
121.6107
121.3098
120.9789
120.6806
120.4306
120.1661
119.8846
119.5596
119.2398
118.9613
118.7204
118.4453
118.1552
117.8335
117.5149
117.2348
116.9545
116.6567
116.3452
116.149
115.6744
115.3781
115.923
114.7939
114.4829
114.1146
113.7624
113.4630
113.1938
112.8966
112.5785
112.2500
111.9066
111.6202
111.3315
111.480
110.7558
110.4595
110.1286
109.8305
109.5832
109.3234
109.451
108.7510
108.4082
108.1062
107.8389
107.5939
107.3086
107.163
106.7112
106.3747
106.982
105.8188
105.5344
105.2267
104.9227
104.5835
104.2473
103.9495
103.6640
103.3652
103.605
102.7302
102.3491
102.221
101.7339
101.4636
101.1581
100.8410
100.5359
100.1850
99.8963
99.6215
99.3280
99.363
98.7451
98.4555
98.1230
97.8231
97.5751
97.3244
97.453
96.7710
96.4794
96.1383
95.8437
95.5788
95.3333
95.644
94.7616
94.4887
94.1614
93.8266
93.5619
93.2865
92.9852
92.6720
92.3622
92.663
91.7141
91.3843
91.980
90.8165
90.5115
90.2019
89.8960
89.5396
89.1521
88.8361
88.5566
88.2868
87.9850
87.6480
87.3460
87.367
86.6758
86.3870
86.1241
85.8318
85.5339
85.2442
84.9603
84.6762
84.3404
84.288
83.7717
83.5381
83.2611
82.9672
82.6897
82.4064
82.598
81.7390
81.4732
81.2191
80.9685
80.6934
80.3886
80.1087
79.8410
79.4825
79.1625
78.9132
78.6450
78.3404
78.244
77.7099
77.4139
77.1186
76.7568
76.4058
76.1140
75.8395
75.5379
75.2116
74.8973
74.5913
74.2815
73.9079
73.5217
73.2076
72.9384
72.6692
72.3777
72.614
71.7286
71.4263
71.1541
70.8060
70.4354
70.1482
69.9090
69.6359
69.3134
69.4
68.7059
68.4211
68.1491
67.8489
67.5051
67.1954
66.9518
66.7369
66.5030
66.2184
65.9356
65.6818
65.4405
65.1768
64.8322
64.4984
64.2487
64.356
63.8092
63.5805
63.3189
63.331
62.7571
62.5239
62.3154
62.274
61.6830
61.4165
61.2410
61.541
60.8214
60.5420
60.2712
60.277
59.8064
59.6116
59.4135
59.1402
58.8415
58.6062
58.4400
58.2830
58.1003
57.8588
57.6211
57.4219
57.2543
57.929
56.9042
56.6358
56.3486
56.1403
56.139
55.9070
55.7849
55.6442
55.4731
55.3096
55.1549
55.311
54.9423
54.8232
54.6096
54.4153
54.3286
54.3087
54.2630
54.1670
54.115
53.8786
53.7993
53.7335
53.6873
53.6485
53.5717
53.4318
53.3119
53.2602
53.2677
53.2789
53.2604
53.1707
53.831
53.416
53.419
53.407
53.117
52.8876
52.7574
52.7202
52.7411
52.7697
52.7940
52.8092
52.7754
52.7178
52.6809
52.6824
52.7155
52.7116
52.5951
52.4879
52.4897
52.5592
52.6036
52.5887
52.5266
52.4591
52.4161
52.3965
52.4093
52.4359
52.4341
52.3337
52.2308
52.2078
52.2513
52.2917
52.3027
52.2473
52.1803
52.1591
52.1754
52.2019
52.2158
52.1483
52.117
51.9380
51.9659
52.258
52.737
52.1051
52.896
52.613
52.375
52.333
52.678
52.1215
52.941
51.9857
51.9416
52.173
52.1243
52.1814
52.1777
52.1348
52.1311
52.1663
52.2156
52.2780
52.3441
52.3294
52.2790
52.2824
52.3548
52.4564
52.5447
52.5733
52.5623
52.5776
52.6355
52.7166
52.7793
52.7812
52.7037
52.6842
52.7448
52.8369
52.9183
52.9952
53.213
53.254
53.286
53.643
53.1417
53.2040
53.1556
53.790
53.958
53.2034
53.2973
53.3326
53.3084
53.2760
53.2759
53.2991
53.3468
53.4048
53.4215
53.3456
53.2892
53.3134
53.3847
53.4460
53.4650
53.4200
53.3905
53.3930
53.4328
53.4759
53.4832
53.3861
53.2845
53.2747
53.3457
53.4227
53.4727
53.4860
53.4779
53.4726
53.4797
53.5241
53.5909
53.5885
53.5030
53.4797
53.5584
53.6731
53.7426
53.7477
53.7095
53.7100
53.7495
53.8124
53.8833
53.9295
53.8929
53.8622
53.9022
54.12
54.1084
54.1841
54.1801
54.1804
54.2229
54.3000
54.3790
54.4165
54.3534
54.3114
54.3600
54.4542
54.5445
54.6264
54.6586
54.6649
54.6710
54.7082
54.7862
54.8562
54.8032
54.7234
54.7456
54.8458
54.9209
54.9430
54.9050
54.8764
54.8762
54.9003
54.9489
54.9959
54.9608
54.8889
54.8733
54.9224
54.9900
55.298
55.72
54.9721
54.9688
54.9955
55.277
55.425
54.9650
54.8576
54.8313
54.8866
54.9471
54.9930
55.58
54.9881
54.9718
54.9686
55.59
55.686
55.602
54.9682
54.9383
55.218
55.1212
55.1706
55.1582
55.1369
55.1587
55.2012
55.2593
55.3238
55.3406
55.2957
55.2848
55.3480
55.4435
55.5344
55.5719
55.5578
55.5675
55.6243
55.7011
55.7447
55.7085
55.6494
55.6636
55.7405
55.8220
55.8999
55.9454
55.9574
55.9535
55.9696
56.399
56.1070
56.645
55.9886
56.56
56.995
56.1764
56.1984
56.1685
56.1353
56.1277
56.1450
56.1880
56.2226
56.1633
56.812
56.639
56.1072
56.1617
56.1915
56.1532
56.1047
56.980
56.1255
56.1525
56.1452
56.367
55.9507
55.9524
56.124
56.696
56.1040
56.904
56.657
56.479
56.610
56.1109
56.1363
56.552
55.9865
56.304
56.1291
56.1897
56.1928
56.1517
56.1448
56.1635
56.2045
56.2645
56.2896
56.2378
56.1989
56.2391
56.3300
56.4241
56.4653
56.4557
56.4670
56.5195
56.5950
56.6454
56.6078
56.5305
56.5349
56.6082
56.6823
56.7537
56.7894
56.7907
56.7935
56.8118
56.8731
56.9244
56.8639
56.7917
56.8200
56.9174
56.9814
56.9878
56.9407
56.9100
56.9076
56.9274
56.9756
56.9946
56.9304
56.8707
56.8765
56.9330
56.9853
56.9867
56.9387
56.9139
56.9289
56.9635
56.9802
56.9162
56.7968
56.7507
56.7956
56.8566
56.9009
56.9040
56.8804
56.8595
56.8595
56.8947
56.9417
56.8926
56.8056
56.8105
56.9037
56.9812
57.105
56.9784
56.9678
56.9834
57.141
57.691
57.1199
57.913
57.512
57.779
57.1556
57.2447
57.2932
57.2758
57.2716
57.3210
57.3911
57.4404
57.4025
57.3314
57.3440
57.4179
57.4930
57.5607
57.5983
57.6028
57.5970
57.6175
57.6828
57.7269
57.6538
57.5897
57.6374
57.7273
57.7745
57.7650
57.7198
57.6944
57.6901
57.7128
57.7569
57.7386
57.6451
57.5987
57.6287
57.6808
57.7135
57.6889
57.6426
57.6319
57.6480
57.6749
57.6725
57.5643
57.4643
57.4589
57.5133
57.5638
57.5988
57.5827
57.5495
57.5261
57.5377
57.5796
57.5868
57.5003
57.4485
57.5001
57.5852
57.6308
57.6062
57.5707
57.5817
57.6093
57.6539
57.7038
57.6902
57.6334
57.6352
57.7122
57.8053
57.8722
57.8673
57.8550
57.8871
57.9461
57.9966
57.9868
57.9061
57.8829
57.9390
58.148
58.856
58.1286
58.1273
58.1084
58.1172
58.1779
58.2261
58.1595
58.808
58.1044
58.1947
58.2475
58.2510
58.2098
58.1785
58.1760
58.1902
58.2316
58.2227
58.1335
58.797
58.1026
58.1503
58.1791
58.1410
58.899
58.701
58.779
58.1018
58.918
57.9773
57.8763
57.8702
57.9204
57.9624
57.9888
57.9721
57.9454
57.9215
57.9357
57.9873
57.9798
57.8889
57.8504
57.9153
57.9989
58.351
58.70
57.9743
57.9783
58.117
58.621
58.1060
58.708
58.237
58.391
58.1190
58.2058
58.2605
58.2455
58.2310
58.2606
58.3225
58.3725
58.3367
58.2689
58.2724
58.3368
58.4110
58.4868
58.5216
58.5211
58.5114
58.5377
58.6002
58.6151
58.5313
58.4790
58.5318
58.6144
58.6454
58.6125
58.5646
58.5460
58.5536
58.5816
58.6162
58.5744
58.4928
58.4733
58.5144
58.5643
58.5840
58.5335
58.4855
58.4752
58.4965
58.5167
58.4671
58.3427
58.2785
58.3072
58.3601
58.4102
58.4169
58.3842
58.3503
58.3370
58.3708
58.4028
58.3315
58.2550
58.2714
58.3561
58.4129
58.4212
58.3823
58.3679
58.3895
58.4373
58.4955
58.5039
58.4565
58.4451
58.4954
58.5796
58.6503
58.6550
58.6348
58.6514
58.7068
58.7575
58.7489
58.6688
58.6453
58.7072
58.7839
58.8519
58.8880
58.8881
58.8756
58.8928
58.9509
58.9968
58.9271
58.8605
58.8982
58.9852
59.304
59.186
58.9718
58.9477
58.9464
58.9704
59.90
58.9675
58.8767
58.8374
58.8692
58.9150
58.9350
58.8875
58.8462
58.8318
58.8412
58.8590
58.8178
58.6948
58.6252
58.6503
58.6998
58.7366
58.7438
58.7205
58.6942
58.6799
58.7120
58.7464
58.6729
58.5890
58.6043
58.6851
58.7417
58.7431
58.6983
58.6817
58.7033
58.7426
58.7884
58.7807
58.7220
58.7081
58.7626
58.8410
58.9106
58.9054
58.8901
58.9201
58.9812
59.354
59.168
58.9346
58.9170
58.9753
59.457
59.1112
59.1425
59.1347
59.1189
59.1349
59.1946
59.2254
59.1445
59.839
59.1241
59.2034
59.2384
59.2120
59.1605
59.1379
59.1336
59.1610
59.1976
59.1498
59.640
59.378
59.769
59.1241
59.1346
59.856
59.506
59.539
59.749
59.846
59.112
58.8875
58.8379
58.8678
58.9086
58.9430
58.9347
58.9078
58.8747
58.8655
58.9052
58.9290
58.8490
58.7877
58.8274
58.9085
58.9559
58.9395
58.9028
58.9078
58.9316
58.9727
59.198
58.9940
58.9415
58.9414
59.54
59.867
59.1386
59.1232
59.1119
59.1457
59.2046
59.2432
59.1955
59.1249
59.1285
59.1895
59.2617
59.3298
59.3460
59.3412
59.3325
59.3666
59.4304
59.4231
59.3312
59.2988
59.3633
59.4282
59.4469
59.4041
59.3661
59.3463
59.3548
59.3917
59.4019
59.3151
59.2408
59.2442
59.2895
59.3209
59.3016
59.2528
59.2315
59.2432
59.2676
59.2551
59.1483
59.468
59.313
59.756
59.1221
59.1467
59.1252
59.927
59.692
59.856
59.1283
59.921
58.9942
58.9720
59.437
59.1094
59.1269
59.880
59.703
59.831
59.1153
59.1678
59.1917
59.1384
59.1059
59.1488
59.2312
59.3119
59.3238
59.3045
59.3181
59.3681
59.4217
59.4225
59.3430
59.3134
59.3667
59.4398
59.5047
59.5447
59.5429
59.5315
59.5403
59.5891
59.6319
59.5590
59.4849
59.5214
59.6098
59.6547
59.6416
59.5953
59.5654
59.5588
59.5866
59.6228
59.5798
59.4962
59.4745
59.5102
59.5517
59.5563
59.4991
59.4545
59.4487
59.4669
59.4748
59.3912
59.2655
59.2190
59.2541
59.3021
59.3373
59.3261
59.2957
59.2690
59.2735
59.3154
59.3152
59.2223
59.1689
59.2264
59.3036
59.3360
59.3027
59.2691
59.2619
59.2808
59.3254
59.3655
59.3238
59.2717
59.2888
59.3561
59.4337
59.4717
59.4547
59.4528
59.4900
59.5531
59.5787
59.5059
59.4451
59.4702
59.5382
59.6037
59.6521
59.6612
59.6509
59.6493
59.6982
59.7564
59.7083
59.6197
59.6211
59.6977
59.7475
59.7423
59.6899
59.6542
59.6456
59.6622
59.6973
59.6761
59.5880
59.5374
59.5675
59.6107
59.6339
59.5948
59.5549
59.5463
59.5615
59.5766
59.5287
59.4017
59.3382
59.3657
59.4119
59.4444
59.4378
59.4129
59.3775
59.3678
59.4114
59.4382
59.3560
59.2803
59.3127
59.3876
59.4298
59.4158
59.3750
59.3699
59.3945
59.4416
59.4874
59.4669
59.4169
59.4235
59.4965
59.5839
59.6345
59.6115
59.6025
59.6345
59.6887
59.7174
59.6581
59.5918
59.6021
59.6627
59.7231
59.7874
59.8025
59.7867
59.7790
59.8191
59.8832
59.8520
59.7607
59.7532
59.8300
59.8858
59.8889
59.8397
59.8093
59.7955
59.8050
59.8338
59.8207
59.7304
59.6693
59.6859
59.7306
59.7571
59.7187
59.6710
59.6520
59.6618
59.6735
59.6338
59.5055
59.4326
59.4456
59.4911
59.5320
59.5338
59.5006
59.4671
59.4612
59.4995
59.5338
59.4547
59.3752
59.4041
59.4853
59.5245
59.5083
59.4691
59.4579
59.4716
59.5071
59.5558
59.5309
59.4777
59.4782
59.5445
59.6328
59.6885
59.6753
59.6676
59.6959
59.7551
59.7966
59.7423
59.6740
59.6864
59.7551
59.8149
59.8740
59.8918
59.8721
59.8592
59.9018
59.9650
59.9339
59.8425
59.8335
59.9065
59.9592
59.9614
59.9125
59.8749
59.8628
59.8794
59.9117
59.9005
59.8147
59.7577
59.7806
59.8295
59.8598
59.8275
59.7826
59.7685
59.7760
59.7919
59.7460
59.6148
59.5337
59.5453
59.5828
59.6173
59.6231
59.5999
59.5606
59.5399
59.5730
59.6025
59.5266
59.4584
59.4921
59.5701
59.6102
59.5921
59.5535
59.5441
59.5598
59.6024
59.6499
59.6199
59.5621
59.5638
59.6327
59.7148
59.7571
59.7366
59.7251
59.7616
59.8186
59.8522
59.7895
59.7129
59.7236
59.7958
59.8642
59.9214
59.9316
59.9135
59.9014
59.9469
60.124
59.9808
59.8881
59.8835
59.9597
60.99
60.108
59.9656
59.9326
59.9172
59.9250
59.9572
59.9386
59.8469
59.7951
59.8151
59.8540
59.8766
59.8379
59.7941
59.7829
59.7993
59.8147
59.7588
59.6251
59.5574
59.5836
59.6298
59.6652
59.6604
59.6349
59.6014
59.5915
59.6243
59.6430
59.5593
59.4888
59.5263
59.6063
59.6451
59.6249
59.5802
59.5703
59.5860
59.6285
59.6761
59.6435
59.5879
59.5971
59.6654
59.7467
59.7946
59.7828
59.7810
59.8187
59.8760
59.9032
59.8419
59.7823
59.7977
59.8585
59.9235
59.9790
59.9814
59.9656
59.9593
59.9995
60.496
60.21
59.9190
59.9295
60.119
60.595
60.590
60.128
59.9839
59.9724
59.9877
60.232
59.9939
59.9016
59.8605
59.8905
59.9380
59.9600
59.9155
59.8703
59.8571
59.8692
59.8772
59.8131
59.6874
59.6293
59.6524
59.6918
59.7230
59.7187
59.6942
59.6584
59.6548
59.6979
59.7094
59.6277
59.5732
59.6216
59.6974
59.7300
59.7013
59.6670
59.6649
59.6898
59.7341
59.7668
59.7176
59.6697
59.6912
59.7625
59.8382
59.8629
59.8418
59.8390
59.8812
59.9384
59.9574
59.8856
59.8365
59.8705
59.9361
59.9972
60.508
60.567
60.424
60.452
60.910
60.1363
60.684
59.9930
60.173
60.932
60.1289
60.1092
60.592
60.329
60.276
60.496
60.784
60.281
59.9411
59.9142
59.9510
59.9877
59.9898
59.9426
59.9093
59.9061
59.9228
59.9290
59.8425
59.7197
59.6848
59.7191
59.7610
59.7896
59.7759
59.7414
59.7099
59.7077
59.7482
59.7360
59.6379
59.5913
59.6477
59.7165
59.7444
59.7044
59.6753
59.6802
59.7108
59.7652
59.7914
59.7386
59.7012
59.7344
59.8110
59.8897
59.9008
59.8862
59.8889
59.9302
59.9755
59.9743
59.8928
59.8548
59.8962
59.9631
60.308
60.657
60.562
60.378
60.536
60.1146
60.1401
60.605
60.72
60.571
60.1290
60.1580
60.1276
60.814
60.523
60.502
60.809
60.990
60.282
59.9461
59.9306
59.9653
59.9980
59.9871
59.9397
59.9102
59.9107
59.9194
59.9078
59.7998
59.6828
59.6612
59.7028
59.7402
59.7617
59.7417
59.7044
59.6739
59.6850
59.7327
59.6996
59.6021
59.5842
59.6592
59.7188
59.7280
59.6797
59.6563
59.6622
59.6886
59.7319
59.7369
59.6738
59.6517
59.6969
59.7752
59.8522
59.8562
59.8428
59.8617
59.9142
59.9666
59.9461
59.8611
59.8389
59.8925
59.9624
60.287
60.568
60.447
60.291
60.513
60.1106
60.1206
60.362
59.9948
60.556
60.1228
60.1436
60.1017
60.556
60.308
60.358
60.671
60.751
59.9928
59.9248
59.9273
59.9757
60.148
59.9915
59.9386
59.9170
59.9209
59.9372
59.9123
59.7868
59.6872
59.6820
59.7212
59.7566
59.7715
59.7401
59.7062
59.6838
59.7095
59.7465
59.6898
59.6005
59.6065
59.6791
59.7324
59.7332
59.6885
59.6710
59.6854
59.7202
59.7689
59.7593
59.7047
59.6910
59.7490
59.8249
59.8805
59.8690
59.8584
59.8875
59.9338
59.9670
59.9226
59.8470
59.8439
59.9021
59.9633
60.234
60.392
60.240
60.157
60.555
60.1176
60.995
60.78
59.9856
60.563
60.1180
60.1302
60.837
60.391
60.183
60.253
60.579
60.539
59.9637
59.8994
59.9147
59.9575
59.9851
59.9515
59.9019
59.8803
59.8962
59.9160
59.8771
59.7518
59.6724
59.6903
59.7393
59.7795
59.7837
59.7492
59.7125
59.6981
59.7329
59.7609
59.6848
59.6112
59.6382
59.7174
59.7648
59.7549
59.7133
59.7026
59.7183
59.7609
59.8055
59.7803
59.7243
59.7238
59.7952
59.8837
59.9307
59.9147
59.9080
59.9481
60.106
60.393
59.9740
59.9071
59.9203
59.9887
60.569
60.1115
60.1183
60.944
60.872
60.1288
60.1861
60.1356
60.525
60.614
60.1449
60.1938
60.1910
60.1430
60.1076
60.956
60.1114
60.1471
60.1199
60.285
59.9896
60.108
60.487
60.673
60.221
59.9793
59.9721
59.9862
59.9935
59.9160
59.7872
59.7299
59.7618
59.8055
59.8396
59.8280
59.7989
59.7694
59.7589
59.7972
59.8048
59.7202
59.6751
59.7302
59.8018
59.8278
59.7963
59.7675
59.7714
59.7926
59.8334
59.8632
59.8168
59.7701
59.7883
59.8607
59.9400
59.9665
59.9446
59.9449
59.9924
60.489
60.571
59.9743
59.9282
59.9719
60.397
60.1031
60.1471
60.1471
60.1312
60.1353
60.1885
60.2207
60.1416
60.743
60.1139
60.1845
60.2186
60.1898
60.1380
60.1117
60.1030
60.1253
60.1504
60.934
60.110
59.9923
60.253
60.635
60.557
60.56
59.9673
59.9687
59.9871
59.9879
59.8890
59.7696
59.7432
59.7847
59.8295
59.8537
59.8301
59.7865
59.7556
59.7629
59.8011
59.7674
59.6679
59.6437
59.7130
59.7777
59.7936
59.7516
59.7314
59.7395
59.7715
59.8212
59.8280
59.7723
59.7485
59.7880
59.8654
59.9386
59.9387
59.9203
59.9351
59.9907
60.366
60.120
59.9323
59.9170
59.9722
60.360
60.962
60.1206
60.1139
60.914
60.1021
60.1579
60.1693
60.814
60.397
60.1060
60.1809
60.2082
60.1717
60.1296
60.1080
60.1113
60.1449
60.1557
60.732
59.9918
59.9919
60.351
60.674
60.437
59.9917
59.9659
59.9717
59.9846
59.9656
59.8468
59.7526
59.7513
59.7968
59.8413
59.8600
59.8300
59.7947
59.7763
59.8007
59.8393
59.7795
59.6927
59.6980
59.7781
59.8340
59.8322
59.7837
59.7710
59.7867
59.8184
59.8614
59.8452
59.7877
59.7740
59.8285
59.9064
59.9675
59.9587
59.9472
59.9782
60.355
60.780
60.342
59.9613
59.9651
60.324
60.1055
60.1651
60.1764
60.1597
60.1450
60.1725
60.2351
60.2082
60.1184
60.1094
60.1825
60.2365
60.2414
60.1956
60.1592
60.1405
60.1522
60.1928
60.1772
60.888
60.395
60.634
60.1099
60.1403
60.1017
60.569
60.443
60.577
60.706
60.132
59.8851
59.8188
59.8436
59.8856
59.9253
59.9175
59.8829
59.8447
59.8324
59.8721
59.8865
59.8007
59.7385
59.7797
59.8566
59.8963
59.8697
59.8388
59.8406
59.8650
59.9083
59.9453
59.8996
59.8497
59.8708
59.9433
60.213
60.493
60.301
60.307
60.717
60.1230
60.1362
60.600
60.126
60.465
60.1125
60.1744
60.2205
60.2231
60.2059
60.2063
60.2628
60.3076
60.2383
60.1663
60.2011
60.2819
60.3184
60.2982
60.2471
60.2150
60.2059
60.2260
60.2523
60.1907
60.1045
60.815
60.1145
60.1491
60.1415
60.917
60.569
60.541
60.691
60.697
59.9751
59.8595
59.8310
59.8743
59.9162
59.9420
59.9161
59.8795
59.8511
59.8621
59.8989
59.8630
59.7665
59.7437
59.8127
59.8721
59.8859
59.8435
59.8239
59.8316
59.8597
59.9096
59.9162
59.8559
59.8213
59.8644
59.9444
60.251
60.292
60.80
60.250
60.793
60.1291
60.1071
60.238
60.72
60.598
60.1297
60.1875
60.2094
60.1924
60.1716
60.1904
60.2526
60.2542
60.1634
60.1270
60.1872
60.2502
60.2735
60.2297
60.1883
60.1707
60.1729
60.2037
60.2088
60.1262
60.519
60.554
60.972
60.1308
60.1036
60.533
60.286
60.341
60.478
60.202
59.8921
59.7985
59.7989
59.8377
59.8767
59.8826
59.8474
59.8089
59.7921
59.8255
59.8606
59.7986
59.7188
59.7354
59.8178
59.8670
59.8582
59.8170
59.8088
59.8223
59.8548
59.9005
59.8822
59.8260
59.8213
59.8780
59.9617
60.206
60.110
60.15
60.368
60.877
60.1247
60.696
60.12
60.121
60.742
60.1355
60.1945
60.2095
60.1985
60.1930
60.2377
60.3018
60.2636
60.1778
60.1771
60.2480
60.2932
60.2876
60.2365
60.2057
60.1899
60.1984
60.2332
60.2033
60.1119
60.678
60.928
60.1357
60.1569
60.1232
60.848
60.730
60.853
60.960
60.268
59.8987
59.8409
59.8672
59.9054
59.9412
59.9327
59.8996
59.8613
59.8521
59.8884
59.8855
59.7958
59.7427
59.7934
59.8680
59.8965
59.8638
59.8304
59.8295
59.8488
59.8871
59.9185
59.8783
59.8339
59.8583
59.9305
60.79
60.351
60.136
60.124
60.588
60.1130
60.1158
60.300
59.9822
60.150
60.779
60.1457
60.1858
60.1773
60.1598
60.1668
60.2172
60.2541
60.1776
60.1091
60.1499
60.2275
60.2605
60.2388
60.1910
60.1666
60.1639
60.1870
60.2095
60.1444
60.609
60.428
60.743
60.1067
60.975
60.442
60.116
60.115
60.282
60.205
59.9127
59.8000
59.7808
59.8239
59.8613
59.8823
59.8641
59.8329
59.8051
59.8126
59.8586
59.8229
59.7322
59.7159
59.7922
59.8564
59.8683
59.8262
59.8063
59.8129
59.8398
59.8809
59.8769
59.8186
59.7885
59.8335
59.9189
59.9938
59.9908
59.9783
59.9953
60.465
60.944
60.750
59.9968
59.9831
60.387
60.1118
60.1780
60.1966
60.1828
60.1652
60.1841
60.2371
60.2368
60.1503
60.1120
60.1713
60.2417
60.2600
60.2129
60.1714
60.1545
60.1598
60.1826
60.1834
60.992
60.320
60.422
60.846
60.1193
60.992
60.488
60.256
60.333
60.505
60.199
59.8959
59.8044
59.8057
59.8538
59.8888
59.8932
59.8615
59.8210
59.7961
59.8209
59.8578
59.7945
59.7125
59.7350
59.8175
59.8632
59.8540
59.8151
59.8038
59.8189
59.8618
59.9106
59.8889
59.8329
59.8290
59.8862
59.9704
60.231
60.62
59.9926
60.216
60.768
60.1124
60.528
59.9855
59.9973
60.605
60.1260
60.1890
60.2001
60.1847
60.1801
60.2254
60.2863
60.2424
60.1531
60.1569
60.2311
60.2797
60.2772
60.2314
60.1933
60.1823
60.1959
60.2328
60.2036
60.1108
60.651
60.837
60.1190
60.1334
60.907
60.510
60.402
60.484
60.550
59.9936
59.8736
59.8206
59.8509
59.8947
59.9307
59.9225
59.8883
59.8522
59.8501
59.8918
59.8919
59.7981
59.7437
59.7942
59.8653
59.8960
59.8629
59.8239
59.8237
59.8468
59.8890
59.9130
59.8615
59.8217
59.8478
59.9240
60.77
60.324
60.152
60.225
60.671
60.1174
60.1180
60.367
59.9889
60.297
60.974
60.1569
60.1935
60.1882
60.1709
60.1782
60.2316
60.2601
60.1785
60.1120
60.1497
60.2279
60.2624
60.2350
60.1882
60.1626
60.1600
60.1783
60.1971
60.1355
60.484
60.321
60.689
60.1103
60.1059
60.553
60.225
60.255
60.413
60.328
59.9202
59.8108
59.7875
59.8263
59.8646
59.8789
59.8581
59.8254
59.7949
59.8086
59.8504
59.8202
59.7289
59.7159
59.7900
59.8523
59.8632
59.8188
59.8026
59.8109
59.8432
59.8914
59.8959
59.8370
59.8105
59.8515
59.9238
59.9849
59.9814
59.9662
59.9860
60.399
60.876
60.653
59.9829
59.9727
60.333
60.974
60.1641
60.1870
60.1743
60.1544
60.1779
60.2434
60.2454
60.1558
60.1216
60.1870
60.2514
60.2705
60.2234
60.1752
60.1536
60.1597
60.1922
60.2013
60.1156
60.431
60.473
60.933
60.1281
60.1021
60.503
60.303
60.455
60.606
60.296
59.9109
59.8251
59.8419
59.8915
59.9276
59.9336
59.9033
59.8674
59.8462
59.8715
59.9023
59.8240
59.7412
59.7676
59.8491
59.8925
59.8748
59.8310
59.8260
59.8471
59.8896
59.9355
59.9117
59.8603
59.8631
59.9269
60.71
60.507
60.331
60.239
60.624
60.1188
60.1510
60.881
60.214
60.350
60.964
60.1600
60.2121
60.2187
60.2010
60.1932
60.2359
60.2941
60.2464
60.1653
60.1770
60.2546
60.3058
60.3025
60.2589
60.2295
60.2157
60.2322
60.2612
60.2190
60.1377
60.1073
60.1360
60.1717
60.1815
60.1317
60.862
60.734
60.882
60.980
60.184
59.8911
59.8378
59.8703
59.9139
59.9441
59.9289
59.9017
59.8718
59.8737
59.9086
59.9036
59.8155
59.7746
59.8357
59.9076
59.9294
59.8905
59.8551
59.8533
59.8774
59.9161
59.9325
59.8794
59.8415
59.8669
59.9409
60.212
60.456
60.294
60.362
60.872
60.1431
60.1373
60.521
60.205
60.679
60.1342
60.1981
60.2338
60.2268
60.2080
60.2236
60.2773
60.3004
60.2187
60.1649
60.2100
60.2739
60.3006
60.2676
60.2231
60.1949
60.1874
60.2086
60.2201
60.1481
60.734
60.649
60.1032
60.1368
60.1248
60.768
60.532
60.602
60.720
60.558
59.9388
59.8303
59.8151
59.8538
59.8928
59.9088
59.8802
59.8394
59.8079
59.8227
59.8670
59.8193
59.7319
59.7327
59.8083
59.8632
59.8652
59.8207
59.8056
59.8207
59.8552
59.9033
59.8988
59.8388
59.8167
59.8753
59.9629
60.248
60.173
60.2
60.252
60.750
60.1099
60.711
59.9961
59.9958
60.506
60.1073
60.1631
60.1809
60.1686
60.1619
60.2022
60.2657
60.2470
60.1546
60.1372
60.2093
60.2730
60.2873
60.2435
60.2084
60.1892
60.1934
60.2222
60.2029
60.1092
60.514
60.630
60.1045
60.1315
60.931
60.490
60.344
60.499
60.703
60.286
59.9018
59.8242
59.8458
59.8944
59.9318
59.9282
59.8914
59.8536
59.8441
59.8810
59.9015
59.8203
59.7511
59.7904
59.8702
59.9098
59.8787
59.8432
59.8409
59.8544
59.8914
59.9331
59.8957
59.8419
59.8536
59.9277
60.94
60.520
60.346
60.350
60.800
60.1375
60.1603
60.918
60.377
60.608
60.1240
60.1864
60.2344
60.2333
60.2078
60.2057
60.2521
60.3002
60.2358
60.1595
60.1833
60.2568
60.2943
60.2842
60.2335
60.2018
60.1945
60.2158
60.2453
60.1941
60.1060
60.800
60.1171
60.1578
60.1629
60.1155
60.775
60.734
60.837
60.850
59.9874
59.8635
59.8232
59.8568
59.8953
59.9233
59.9067
59.8695
59.8370
59.8413
59.8870
59.8731
59.7796
59.7453
59.8101
59.8777
59.9011
59.8602
59.8313
59.8419
59.8726
59.9133
59.9249
59.8675
59.8330
59.8659
59.9385
60.163
60.257
60.36
60.133
60.610
60.1059
60.960
60.170
59.9920
60.407
60.992
60.1595
60.1938
60.1868
60.1715
60.1902
60.2513
60.2690
60.1778
60.1260
60.1700
60.2324
60.2576
60.2175
60.1687
60.1436
60.1436
60.1695
60.1780
60.983
60.228
60.187
60.571
60.895
60.731
60.266
60.53
60.55
60.202
60.1
59.8780
59.7755
59.7717
59.8155
59.8511
59.8679
59.8432
59.8090
59.7801
59.7966
59.8366
59.7791
59.6854
59.6863
59.7601
59.8133
59.8158
59.7709
59.7582
59.7724
59.8056
59.8542
59.8496
59.7953
59.7821
59.8401
59.9274
59.9922
59.9814
59.9640
59.9893
60.489
60.923
60.432
59.9683
59.9657
60.249
60.893
60.1516
60.1651
60.1499
60.1445
60.1763
60.2392
60.2205
60.1305
60.1121
60.1827
60.2433
60.2536
60.2113
60.1742
60.1558
60.1628
60.2017
60.1882
60.959
60.400
60.559
60.998
60.1230
60.802
60.306
60.169
60.279
60.398
59.9878
59.8621
59.7921
59.8111
59.8516
59.8891
59.8895
59.8601
59.8258
59.8177
59.8498
59.8676
59.7871
59.7224
59.7576
59.8325
59.8702
59.8490
59.8065
59.8026
59.8277
59.8644
59.8983
59.8586
59.8028
59.8168
59.8856
59.9724
60.89
59.9884
59.9858
60.245
60.791
60.1007
60.317
59.9798
60.109
60.832
60.1446
60.1954
60.1999
60.1856
60.1899
60.2380
60.2800
60.2125
60.1308
60.1556
60.2305
60.2695
60.2594
60.2106
60.1763
60.1636
60.1868
60.2193
60.1710
60.829
60.598
60.987
60.1417
60.1491
60.994
60.582
60.559
60.735
60.760
59.9890
59.8729
59.8373
59.8705
59.9127
59.9389
59.9213
59.8860
59.8524
59.8631
59.9087
59.8822
59.7907
59.7615
59.8262
59.8916
59.9106
59.8742
59.8568
59.8588
59.8886
59.9428
59.9635
59.9109
59.8738
59.9084
59.9875
60.656
60.722
60.547
60.715
60.1217
60.1675
60.1476
60.637
60.401
60.863
60.1556
60.2256
60.2548
60.2498
60.2339
60.2490
60.3128
60.3235
60.2355
60.1905
60.2454
60.3109
60.3310
60.2995
60.2590
60.2396
60.2432
60.2720
60.2802
60.1976
60.1223
60.1254
60.1657
60.1973
60.1731
60.1190
60.951
60.1005
60.1178
60.911
59.9692
59.8736
59.8774
59.9230
59.9627
59.9783
59.9488
59.9086
59.8893
59.9177
59.9506
59.8788
59.7918
59.8062
59.8788
59.9286
59.9216
59.8738
59.8599
59.8755
59.9118
59.9530
59.9306
59.8686
59.8654
59.9309
60.170
60.729
60.604
60.501
60.839
60.1394
60.1702
60.1120
60.468
60.566
60.1117
60.1737
60.2343
60.2451
60.2228
60.2137
60.2461
60.3048
60.2622
60.1752
60.1721
60.2454
60.2988
60.2949
60.2418
60.2074
60.1953
60.2067
60.2396
60.2153
60.1343
60.919
60.1116
60.1511
60.1713
60.1285
60.827
60.697
60.807
60.884
60.197
59.8889
59.8261
59.8515
59.8873
59.9218
59.9081
59.8703
59.8282
59.8244
59.8651
59.8729
59.7861
59.7373
59.7910
59.8615
59.8954
59.8682
59.8391
59.8434
59.8595
59.8959
59.9172
59.8671
59.8243
59.8505
59.9203
59.9953
60.164
59.9904
59.9910
60.341
60.868
60.905
60.134
59.9748
60.125
60.749
60.1367
60.1749
60.1686
60.1507
60.1587
60.2160
60.2522
60.1744
60.1039
60.1395
60.2137
60.2448
60.2215
60.1742
60.1458
60.1375
60.1617
60.1832
60.1200
60.331
60.115
60.492
60.834
60.790
60.295
60.7
60.38
60.217
60.173
59.9190
59.8129
59.7903
59.8277
59.8614
59.8813
59.8601
59.8263
59.7962
59.8058
59.8437
59.8094
59.7088
59.6884
59.7611
59.8211
59.8288
59.7870
59.7753
59.7859
59.8161
59.8605
59.8612
59.7967
59.7706
59.8222
59.9008
59.9715
59.9704
59.9531
59.9716
60.283
60.768
60.550
59.9752
59.9527
60.40
60.711
60.1314
60.1508
60.1413
60.1271
60.1474
60.2102
60.2119
60.1187
60.805
60.1475
60.2168
60.2361
60.1993
60.1608
60.1425
60.1473
60.1752
60.1772
60.1003
60.286
60.321
60.745
60.1064
60.799
60.272
60.74
60.119
60.284
60.37
59.8831
59.7956
59.8008
59.8468
59.8778
59.8821
59.8559
59.8217
59.8035
59.8363
59.8747
59.8064
59.7269
59.7479
59.8251
59.8751
59.8708
59.8290
59.8173
59.8300
59.8614
59.9026
59.8827
59.8251
59.8147
59.8740
59.9584
60.86
59.9945
59.9804
60.148
60.758
60.1163
60.638
59.9969
60.93
60.690
60.1317
60.1832
60.1875
60.1685
60.1634
60.2034
60.2590
60.2160
60.1289
60.1257
60.2000
60.2519
60.2515
60.2009
60.1645
60.1442
60.1514
60.1849
60.1681
60.774
60.248
60.455
60.868
60.1117
60.754
60.349
60.277
60.382
60.492
59.9849
59.8552
59.7961
59.8212
59.8624
59.8938
59.8786
59.8391
59.8046
59.8014
59.8379
59.8442
59.7542
59.6961
59.7477
59.8226
59.8528
59.8196
59.7860
59.7857
59.8086
59.8559
59.8927
59.8533
59.8055
59.8222
59.8948
59.9768
60.32
59.9822
59.9861
60.353
60.912
60.943
60.105
59.9527
59.9855
60.545
60.1223
60.1693
60.1603
60.1344
60.1388
60.1904
60.2324
60.1614
60.898
60.1235
60.1983
60.2340
60.2141
60.1665
60.1384
60.1287
60.1438
60.1649
60.1079
60.256
59.9965
60.281
60.621
60.630
60.113
59.9716
59.9639
59.9806
59.9845
59.8903
59.7739
59.7406
59.7734
59.8163
59.8434
59.8225
59.7832
59.7471
59.7609
59.8070
59.7879
59.6927
59.6703
59.7394
59.8017
59.8175
59.7767
59.7544
59.7609
59.7877
59.8290
59.8450
59.7882
59.7489
59.7904
59.8715
59.9490
59.9578
59.9484
59.9656
60.181
60.708
60.585
59.9777
59.9555
60.78
60.720
60.1340
60.1657
60.1604
60.1477
60.1715
60.2267
60.2388
60.1493
60.1001
60.1571
60.2285
60.2571
60.2263
60.1841
60.1620
60.1547
60.1873
60.2038
60.1328
60.635
60.608
60.1017
60.1360
60.1127
60.673
60.469
60.567
60.710
60.420
59.9183
59.8237
59.8243
59.8665
59.9040
59.9123
59.8811
59.8473
59.8297
59.8506
59.8871
59.8267
59.7393
59.7480
59.8282
59.8825
59.8837
59.8417
59.8300
59.8445
59.8816
59.9291
59.9092
59.8487
59.8477
59.9080
59.9853
60.321
60.151
60.38
60.361
60.928
60.1293
60.729
60.32
60.101
60.760
60.1482
60.2083
60.2255
60.2116
60.2052
60.2406
60.2965
60.2554
60.1657
60.1630
60.2359
60.2898
60.2953
60.2464
60.2121
60.1990
60.2074
60.2380
60.2118
60.1183
60.683
60.895
60.1349
60.1548
60.1110
60.658
60.538
60.727
60.895
60.311
59.9069
59.8480
59.8754
59.9202
59.9568
59.9493
59.9177
59.8762
59.8705
59.9061
59.9071
59.8184
59.7608
59.8094
59.8827
59.9115
59.8736
59.8406
59.8414
59.8683
59.9174
59.9501
59.9003
59.8587
59.8875
59.9618
60.436
60.703
60.497
60.518
60.972
60.1497
60.1562
60.787
60.347
60.697
60.1354
60.1979
60.2394
60.2386
60.2190
60.2176
60.2718
60.3122
60.2387
60.1693
60.2052
60.2840
60.3244
60.3011
60.2588
60.2345
60.2310
60.2521
60.2729
60.2109
60.1308
60.1142
60.1505
60.1844
60.1768
60.1215
60.869
60.815
60.944
60.835
59.9779
59.8691
59.8489
59.8908
59.9330
59.9528
59.9268
59.8935
59.8684
59.8791
59.9233
59.8806
59.7912
59.7814
59.8539
59.9146
59.9232
59.8802
59.8606
59.8713
59.8963
59.9391
59.9363
59.8759
59.8593
59.9035
59.9777
60.411
60.391
60.222
60.427
60.1012
60.1510
60.1251
60.421
60.276
60.841
60.1472
60.2139
60.2347
60.2174
60.2027
60.2270
60.2840
60.2719
60.1768
60.1460
60.2066
60.2634
60.2757
60.2362
60.1948
60.1726
60.1820
60.2167
60.2182
60.1324
60.644
60.741
60.1113
60.1416
60.1106
60.595
60.356
60.449
60.623
60.250
59.8980
59.8181
59.8305
59.8723
59.9102
59.9151
59.8807
59.8389
59.8264
59.8500
59.8692
59.7861
59.7094
59.7389
59.8121
59.8534
59.8386
59.8046
59.8007
59.8217
59.8621
59.9060
59.8820
59.8227
59.8278
59.8939
59.9726
60.145
59.9974
59.9861
60.158
60.659
60.919
60.278
59.9614
59.9820
60.411
60.1056
60.1648
60.1721
60.1582
60.1520
60.1848
60.2303
60.1749
60.903
60.1012
60.1796
60.2270
60.2211
60.1730
60.1401
60.1292
60.1428
60.1760
60.1440
60.539
60.95
60.272
60.615
60.754
60.267
59.9840
59.9768
59.9920
60.18
59.9284
59.7988
59.7525
59.7822
59.8292
59.8685
59.8609
59.8257
59.7911
59.7878
59.8265
59.8229
59.7332
59.6834
59.7367
59.8121
59.8416
59.8094
59.7805
59.7847
59.8097
59.8542
59.8800
59.8322
59.7832
59.8118
59.8854
59.9671
59.9962
59.9747
59.9800
60.293
60.960
60.1029
60.239
59.9848
60.261
60.958
60.1677
60.2052
60.1993
60.1726
60.1791
60.2338
60.2688
60.1911
60.1205
60.1610
60.2385
60.2754
60.2542
60.2041
60.1851
60.1811
60.2112
60.2367
60.1696
60.846
60.731
60.1157
60.1484
60.1357
60.856
60.621
60.696
60.892
60.844
59.9739
59.8628
59.8401
59.8759
59.9186
59.9447
59.9205
59.8808
59.8515
59.8639
59.9041
59.8577
59.7648
59.7620
59.8410
59.9059
59.9141
59.8726
59.8598
59.8727
59.9070
59.9548
59.9543
59.8978
59.8752
59.9175
59.9956
60.622
60.553
60.410
60.604
60.1128
60.1564
60.1248
60.480
60.439
60.1063
60.1692
60.2355
60.2525
60.2399
60.2255
60.2497
60.3046
60.2915
60.1962
60.1734
60.2403
60.2990
60.3113
60.2667
60.2260
60.2057
60.2113
60.2421
60.2340
60.1458
60.883
60.932
60.1247
60.1472
60.1109
60.654
60.473
60.581
60.707
60.323
59.9144
59.8381
59.8519
59.8957
59.9346
59.9368
59.9026
59.8576
59.8389
59.8748
59.8987
59.8179
59.7388
59.7682
59.8473
59.8872
59.8654
59.8291
59.8234
59.8388
59.8763
59.9165
59.8857
59.8341
59.8446
59.9101
59.9847
60.175
59.9966
59.9981
60.359
60.903
60.1177
60.483
59.9913
60.150
60.792
60.1408
60.1879
60.1830
60.1627
60.1586
60.1992
60.2459
60.1830
60.1028
60.1209
60.1963
60.2409
60.2383
60.1925
60.1590
60.1481
60.1654
60.1966
60.1569
60.657
60.262
60.495
60.837
60.909
60.467
60.48
59.9929
60.16
60.75
59.9316
59.8066
59.7533
59.7834
59.8254
59.8531
59.8390
59.8077
59.7708
59.7668
59.8130
59.8098
59.7172
59.6745
59.7352
59.8008
59.8266
59.7890
59.7564
59.7594
59.7810
59.8242
59.8497
59.7932
59.7453
59.7709
59.8420
59.9225
59.9394
59.9264
59.9372
59.9844
60.350
60.360
59.9531
59.9235
59.9748
60.443
60.1101
60.1439
60.1348
60.1172
60.1343
60.1987
60.2306
60.1447
60.814
60.1270
60.2029
60.2328
60.2074
60.1586
60.1309
60.1281
60.1552
60.1821
60.1213
60.458
60.340
60.725
60.1139
60.1084
60.622
60.361
60.414
60.610
60.540
59.9463
59.8375
59.8233
59.8685
59.9116
59.9294
59.9102
59.8763
59.8464
59.8574
59.9039
59.8632
59.7665
59.7561
59.8319
59.8915
59.9023
59.8627
59.8508
59.8669
59.9012
59.9468
59.9391
59.8842
59.8703
59.9220
60.31
60.720
60.625
60.403
60.593
60.1117
60.1600
60.1279
60.538
60.487
60.1043
60.1610
60.2207
60.2376
60.2271
60.2141
60.2418
60.3039
60.2930
60.2017
60.1836
60.2546
60.3161
60.3302
60.2841
60.2485
60.2317
60.2414
60.2764
60.2639
60.1713
60.1104
60.1203
60.1567
60.1848
60.1499
60.1002
60.829
60.903
60.1072
60.585
59.9236
59.8497
59.8705
59.9182
59.9524
59.9524
59.9249
59.8957
59.8869
59.9235
59.9406
59.8540
59.7829
59.8186
59.9003
59.9427
59.9209
59.8811
59.8730
59.8900
59.9322
59.9705
59.9294
59.8783
59.8880
59.9572
60.370
60.664
60.490
60.554
60.962
60.1527
60.1790
60.1149
60.574
60.840
60.1469
60.2072
60.2500
60.2477
60.2260
60.2279
60.2768
60.3237
60.2541
60.1777
60.1998
60.2776
60.3204
60.3078
60.2544
60.2228
60.2151
60.2312
60.2573
60.2022
60.1162
60.942
60.1270
60.1643
60.1697
60.1193
60.837
60.785
60.903
60.910
59.9988
59.8791
59.8427
59.8701
59.9076
59.9311
59.9136
59.8772
59.8392
59.8471
59.8905
59.8719
59.7794
59.7561
59.8248
59.8918
59.9104
59.8715
59.8515
59.8610
59.8854
59.9259
59.9358
59.8774
59.8468
59.8865
59.9635
60.373
60.422
60.225
60.376
60.854
60.1297
60.1095
60.258
60.20
60.527
60.1165
60.1792
60.2049
60.1977
60.1808
60.2010
60.2586
60.2730
60.1892
60.1443
60.2015
60.2696
60.2855
60.2468
60.2059
60.1759
60.1698
60.1953
60.1986
60.1209
60.494
60.458
60.823
60.1156
60.948
60.470
60.196
60.260
60.443
60.206
59.9066
59.8075
59.8022
59.8431
59.8793
59.8942
59.8663
59.8250
59.8022
59.8259
59.8620
59.8024
59.7163
59.7227
59.8015
59.8546
59.8527
59.8100
59.7912
59.8013
59.8340
59.8761
59.8554
59.7978
59.7912
59.8452
59.9193
59.9762
59.9697
59.9618
59.9964
60.558
60.961
60.476
59.9691
59.9681
60.199
60.767
60.1331
60.1454
60.1268
60.1120
60.1455
60.2063
60.1795
60.903
60.813
60.1560
60.2096
60.2191
60.1736
60.1361
60.1231
60.1318
60.1619
60.1368
60.389
59.9861
60.99
60.595
60.866
60.448
59.9943
59.9791
59.9914
60.58
59.9511
59.8193
59.7450
59.7631
59.8012
59.8384
59.8312
59.7953
59.7634
59.7512
59.7885
59.8099
59.7299
59.6695
59.7134
59.7913
59.8287
59.8055
59.7641
59.7575
59.7794
59.8168
59.8545
59.8150
59.7640
59.7750
59.8380
59.9194
59.9560
59.9448
59.9505
59.9952
60.555
60.763
60.27
59.9544
59.9909
60.538
60.1165
60.1684
60.1717
60.1578
60.1583
60.2047
60.2551
60.1965
60.1258
60.1499
60.2259
60.2673
60.2551
60.2050
60.1720
60.1599
60.1807
60.2133
60.1635
60.710
60.411
60.795
60.1272
60.1367
60.905
60.559
60.557
60.713
60.762
59.9962
59.8750
59.8354
59.8616
59.9011
59.9277
59.9069
59.8702
59.8391
59.8475
59.8897
59.8645
59.7644
59.7346
59.8046
59.8794
59.8988
59.8518
59.8229
59.8320
59.8653
59.9119
59.9250
59.8689
59.8383
59.8773
59.9554
60.347
60.413
60.228
60.347
60.844
60.1345
60.1216
60.350
60.108
60.588
60.1192
60.1773
60.2071
60.1998
60.1809
60.2007
60.2642
60.2872
60.2069
60.1636
60.2202
60.2899
60.3143
60.2816
60.2391
60.2137
60.2156
60.2482
60.2521
60.1708
60.905
60.914
60.1354
60.1712
60.1504
60.986
60.693
60.741
60.919
60.752
59.9600
59.8598
59.8527
59.8962
59.9346
59.9465
59.9205
59.8900
59.8650
59.8911
59.9330
59.8748
59.7890
59.8012
59.8770
59.9263
59.9224
59.8798
59.8656
59.8711
59.9050
59.9538
59.9324
59.8681
59.8634
59.9241
60.44
60.579
60.443
60.331
60.673
60.1259
60.1591
60.1020
60.290
60.402
60.1015
60.1670
60.2238
60.2339
60.2199
60.2115
60.2417

END